timestamp,temp,hum,mic,ax,ay,az
1773578183.712233,22.0,30.0,1,-4172,-128,-12
1773578183.7325609,22.0,30.0,1,-4164,-128,16
1773578183.7532315,22.0,30.0,1,-4164,-128,16
1773578183.7740366,22.0,30.0,1,-4164,-128,16
1773578183.7944798,22.0,30.0,0,-4180,-92,-4
1773578183.815012,22.0,30.0,0,-4180,-92,-4
1773578183.8352292,22.0,30.0,0,-4180,-92,-4
1773578183.8559422,22.0,30.0,0,-4152,-144,-12
1773578183.8765023,22.0,30.0,0,-4152,-144,-12
1773578183.8969827,22.0,30.0,0,-4184,-116,16
1773578183.920935,22.0,30.0,0,-4184,-116,16
1773578183.9423444,22.0,30.0,0,-4184,-116,16
1773578183.9629834,22.0,30.0,1,-4160,-80,28
1773578183.983699,22.0,30.0,1,-4160,-80,28
1773578184.0043027,22.0,30.0,0,-4164,-136,-8
1773578184.024797,22.0,30.0,0,-4164,-136,-8
1773578184.04571,22.0,30.0,0,-4164,-136,-8
1773578184.066159,22.0,30.0,1,-4212,-116,4
1773578184.086633,22.0,30.0,1,-4212,-116,4
1773578184.1070876,22.0,30.0,1,-4172,-84,44
1773578184.1277301,22.0,30.0,1,-4172,-84,44
1773578184.1480565,22.0,30.0,1,-4172,-84,44
1773578184.1688538,22.0,30.0,1,-4188,-124,-12
1773578184.189351,22.0,30.0,1,-4188,-124,-12
1773578184.2096224,22.0,30.0,1,-4168,-128,-20
1773578184.2298725,22.0,30.0,1,-4168,-128,-20
1773578184.252554,22.0,30.0,1,-4168,-128,-20
1773578184.2730033,22.0,30.0,1,-4144,-116,4
1773578184.2938442,22.0,30.0,1,-4144,-116,4
1773578184.314697,22.0,30.0,0,-4164,-104,32
1773578184.3352609,22.0,30.0,0,-4164,-104,32
1773578184.3555374,22.0,30.0,0,-4164,-104,32
1773578184.3757327,22.0,30.0,0,-4172,-120,-4
1773578184.3963661,22.0,30.0,0,-4172,-120,-4
1773578184.4169881,22.0,30.0,0,-4172,-120,-4
1773578184.4375947,22.0,30.0,0,-4168,-116,4
1773578184.457932,22.0,30.0,0,-4168,-116,4
1773578184.4785273,22.0,30.0,0,-4156,-116,4
1773578184.4989035,22.0,30.0,0,-4156,-116,4
1773578184.5192196,22.0,30.0,0,-4156,-116,4
1773578184.5396485,22.0,30.0,1,-4176,-108,0
1773578184.5602827,22.0,30.0,1,-4176,-108,0
1773578184.5806441,22.0,30.0,0,-4184,-112,-12
1773578184.6009443,22.0,30.0,0,-4184,-112,-12
1773578184.6215844,22.0,30.0,0,-4184,-112,-12
1773578184.6424365,22.0,30.0,1,-4168,-92,20
1773578184.6630702,22.0,30.0,1,-4168,-92,20
1773578184.683784,22.0,30.0,1,-4168,-92,20
1773578184.7044027,22.0,30.0,0,-4192,-116,16
1773578184.7250075,22.0,30.0,0,-4192,-116,16
1773578184.7455187,22.0,30.0,1,-4172,-128,-12
1773578184.7660067,22.0,30.0,1,-4172,-128,-12
1773578184.786897,22.0,30.0,1,-4172,-128,-12
1773578184.8076296,22.0,30.0,1,-4176,-124,-12
1773578184.8281918,22.0,30.0,1,-4176,-124,-12
1773578184.8485875,22.0,30.0,1,-4168,-152,12
1773578184.869202,22.0,30.0,1,-4168,-152,12
1773578184.8910482,22.0,30.0,1,-4168,-152,12
1773578184.911463,22.0,30.0,0,-4156,-108,-36
1773578184.9321609,22.0,30.0,0,-4156,-108,-36
1773578184.9534678,22.0,30.0,0,-4172,-104,0
1773578184.9741492,22.0,30.0,0,-4172,-104,0
1773578184.994848,22.0,30.0,0,-4172,-104,0
1773578185.0155928,22.0,30.0,1,-4196,-108,20
1773578185.0361404,22.0,30.0,1,-4196,-108,20
1773578185.0570579,22.0,30.0,1,-4192,-120,0
1773578185.0776258,22.0,30.0,1,-4192,-120,0
1773578185.0982218,22.0,30.0,1,-4192,-120,0
1773578185.1188362,22.0,30.0,1,-4160,-108,-12
1773578185.1394622,22.0,30.0,1,-4160,-108,-12
1773578185.160645,22.0,30.0,1,-4160,-108,-12
1773578185.1817029,22.0,30.0,0,-4192,-80,36
1773578185.2027874,22.0,30.0,0,-4192,-80,36
1773578185.2232728,22.0,30.0,1,-4184,-108,20
1773578185.2436128,22.0,30.0,1,-4184,-108,20
1773578185.265295,22.0,30.0,1,-4184,-108,20
1773578185.2869027,22.0,30.0,1,-4188,-108,-40
1773578185.3075109,22.0,30.0,1,-4188,-108,-40
1773578185.3283422,22.0,30.0,1,-4144,-124,0
1773578185.348931,22.0,30.0,1,-4144,-124,0
1773578185.3703556,22.0,30.0,1,-4144,-124,0
1773578185.3910854,22.0,30.0,1,-4144,-124,0
1773578185.4122396,22.0,30.0,1,-4180,-104,0
1773578185.4339254,22.0,30.0,1,-4180,-104,0
1773578185.4546635,22.0,30.0,1,-4124,-132,16
1773578185.4770749,22.0,30.0,1,-4124,-132,16
1773578185.4978683,22.0,30.0,1,-4124,-132,16
1773578185.5196755,22.0,30.0,1,-4204,-120,12
1773578185.539996,22.0,30.0,1,-4204,-120,12
1773578185.560552,22.0,30.0,1,-4176,-124,-12
1773578185.5810926,22.0,30.0,1,-4176,-124,-12
1773578185.6031442,22.0,30.0,1,-4176,-124,-12
1773578185.6249235,22.0,30.0,0,-4192,-120,8
1773578185.6459885,22.0,30.0,0,-4192,-120,8
1773578185.6671364,22.0,30.0,0,-4196,-108,40
1773578185.689377,22.0,30.0,0,-4196,-108,40
1773578185.7100983,22.0,30.0,0,-4196,-108,40
1773578185.7307239,22.0,30.0,0,-4160,-120,-8
1773578185.752116,22.0,30.0,0,-4160,-120,-8
1773578185.7733762,22.0,30.0,1,-4148,-112,-4
1773578185.7939212,22.0,30.0,1,-4148,-112,-4
1773578185.8146574,22.0,30.0,1,-4148,-112,-4
1773578185.8364964,22.0,30.0,1,-4176,-96,36
1773578185.8569086,22.0,30.0,1,-4176,-96,36
1773578185.8780258,22.0,30.0,1,-4180,-148,-20
1773578185.8983727,22.0,30.0,1,-4180,-148,-20
1773578185.9190328,22.0,30.0,1,-4180,-148,-20
1773578185.939455,22.0,30.0,1,-4208,-132,-20
1773578185.9599335,22.0,30.0,1,-4208,-132,-20
1773578185.980733,22.0,30.0,1,-4208,-132,-20
1773578186.0012121,22.0,30.0,0,-4200,-84,12
1773578186.021684,22.0,30.0,0,-4200,-84,12
1773578186.042044,22.0,30.0,1,-4172,-100,-8
1773578186.0628583,22.0,30.0,1,-4172,-100,-8
1773578186.0831833,22.0,30.0,1,-4172,-100,-8
1773578186.103681,22.0,30.0,0,-4156,-116,-12
1773578186.1242447,22.0,30.0,0,-4156,-116,-12
1773578186.144504,22.0,30.0,1,-4188,-104,8
1773578186.1648762,22.0,30.0,1,-4188,-104,8
1773578186.1868737,22.0,30.0,1,-4188,-104,8
1773578186.2075944,22.0,30.0,1,-4176,-124,12
1773578186.2285557,22.0,30.0,1,-4176,-124,12
1773578186.2496948,22.0,30.0,1,-4152,-104,-4
1773578186.2714028,22.0,30.0,1,-4152,-104,-4
1773578186.2920904,22.0,30.0,1,-4152,-104,-4
1773578186.312579,22.0,30.0,1,-4176,-112,-8
1773578186.3339415,22.0,30.0,1,-4176,-112,-8
1773578186.3545945,22.0,30.0,0,-4192,-144,20
1773578186.3752942,22.0,30.0,0,-4192,-144,20
1773578186.3956308,22.0,30.0,0,-4192,-144,20
1773578186.4164898,22.0,30.0,1,-4156,-124,-12
1773578186.437014,22.0,30.0,1,-4156,-124,-12
1773578186.4574935,22.0,30.0,1,-4156,-124,-12
1773578186.4778733,22.0,30.0,0,-4168,-116,-4
1773578186.4986663,22.0,30.0,0,-4168,-116,-4
1773578186.5193124,22.0,30.0,0,-4192,-96,16
1773578186.5395992,22.0,30.0,0,-4192,-96,16
1773578186.560069,22.0,30.0,0,-4192,-96,16
1773578186.5828886,22.0,30.0,1,-4184,-136,12
1773578186.603431,22.0,30.0,1,-4184,-136,12
1773578186.6239321,22.0,30.0,0,-4136,-120,-12
1773578186.6453936,22.0,30.0,0,-4136,-120,-12
1773578186.6662297,22.0,30.0,0,-4136,-120,-12
1773578186.686535,22.0,30.0,0,-4220,-128,-4
1773578186.707339,22.0,30.0,0,-4220,-128,-4
1773578186.7287035,22.0,30.0,0,-4176,-100,24
1773578186.7497802,22.0,30.0,0,-4176,-100,24
1773578186.7703915,22.0,30.0,0,-4176,-100,24
1773578186.791093,22.0,30.0,0,-4152,-108,-36
1773578186.8126674,22.0,30.0,0,-4152,-108,-36
1773578186.8337722,22.0,30.0,1,-4176,-116,-12
1773578186.8554401,22.0,30.0,1,-4176,-116,-12
1773578186.8762398,22.0,30.0,1,-4176,-116,-12
1773578186.8967702,22.0,30.0,0,-4176,-136,0
1773578186.9181921,22.0,30.0,0,-4176,-136,0
1773578186.9387877,22.0,30.0,1,-4168,-84,-12
1773578186.9595017,22.0,30.0,1,-4168,-84,-12
1773578186.9806213,22.0,30.0,1,-4168,-84,-12
1773578187.001133,22.0,30.0,0,-4184,-136,-12
1773578187.0226717,22.0,30.0,0,-4184,-136,-12
1773578187.0433948,22.0,30.0,1,-4176,-116,20
1773578187.063831,22.0,30.0,1,-4176,-116,20
1773578187.084256,22.0,30.0,1,-4176,-116,20
1773578187.1047103,22.0,30.0,1,-4180,-96,4
1773578187.1252632,22.0,30.0,1,-4180,-96,4
1773578187.1457157,22.0,30.0,1,-4180,-96,4
1773578187.1667936,22.0,30.0,0,-4164,-120,-4
1773578187.1881037,22.0,30.0,0,-4164,-120,-4
1773578187.2089396,22.0,30.0,1,-4160,-136,0
1773578187.2297668,22.0,30.0,1,-4160,-136,0
1773578187.2502563,22.0,30.0,1,-4160,-136,0
1773578187.270889,22.0,30.0,1,-4080,-152,24
1773578187.2914026,22.0,30.0,1,-4080,-152,24
1773578187.3117507,22.0,30.0,0,-4164,-116,-4
1773578187.3326924,22.0,30.0,0,-4164,-116,-4
1773578187.3534544,22.0,30.0,0,-4164,-116,-4
1773578187.373837,22.0,30.0,0,-4180,-108,-32
1773578187.3948054,22.0,30.0,0,-4180,-108,-32
1773578187.4152915,22.0,30.0,0,-4180,-108,-32
1773578187.4362202,22.0,30.0,0,-4180,-108,-32
1773578187.4570456,22.0,29.9,0,-4172,-124,-32
1773578187.4779975,22.0,29.9,0,-4172,-124,-32
1773578187.4987414,22.0,29.9,1,-4196,-156,-12
1773578187.5193973,22.0,29.9,1,-4196,-156,-12
1773578187.54,22.0,29.9,1,-4196,-156,-12
1773578187.560889,22.0,29.9,1,-4160,-96,28
1773578187.5813696,22.0,29.9,1,-4160,-96,28
1773578187.6024203,22.0,29.9,1,-4192,-132,-20
1773578187.6227686,22.0,29.9,1,-4192,-132,-20
1773578187.64353,22.0,29.9,1,-4192,-132,-20
1773578187.663841,22.0,29.9,0,-4152,-132,-8
1773578187.6840672,22.0,29.9,0,-4152,-132,-8
1773578187.7052393,22.0,29.9,1,-4196,-92,12
1773578187.7258027,22.0,29.9,1,-4196,-92,12
1773578187.7466471,22.0,29.9,1,-4196,-92,12
1773578187.7679474,22.0,29.9,0,-4180,-104,-8
1773578187.7886972,22.0,29.9,0,-4180,-104,-8
1773578187.8093011,22.0,29.9,0,-4180,-104,-8
1773578187.8321736,22.0,29.9,1,-4196,-100,-8
1773578187.8530543,22.0,29.9,1,-4196,-100,-8
1773578187.8735158,22.0,29.9,1,-4168,-108,12
1773578187.8943763,22.0,29.9,1,-4168,-108,12
1773578187.91465,22.0,29.9,1,-4168,-108,12
1773578187.9369347,22.0,29.9,1,-4164,-132,24
1773578187.957781,22.0,29.9,1,-4164,-132,24
1773578187.978522,22.0,29.9,0,-4176,-112,-28
1773578187.9987934,22.0,29.9,0,-4176,-112,-28
1773578188.0192668,22.0,29.9,0,-4176,-112,-28
1773578188.0397856,22.0,29.9,1,-4184,-132,4
1773578188.0607939,22.0,29.9,1,-4184,-132,4
1773578188.0817347,22.0,29.9,1,-4184,-100,-8
1773578188.1026309,22.0,29.9,1,-4184,-100,-8
1773578188.1234257,22.0,29.9,1,-4184,-100,-8
1773578188.145115,22.0,29.9,1,-4204,-108,4
1773578188.1659815,22.0,29.9,1,-4204,-108,4
1773578188.1876042,22.0,29.9,0,-4164,-136,-8
1773578188.2084463,22.0,29.9,0,-4164,-136,-8
1773578188.2289464,22.0,29.9,0,-4164,-136,-8
1773578188.2507026,22.0,29.9,1,-4180,-100,12
1773578188.2710612,22.0,29.9,1,-4180,-100,12
1773578188.2916317,22.0,29.9,1,-4172,-116,4
1773578188.3123684,22.0,29.9,1,-4172,-116,4
1773578188.3326418,22.0,29.9,1,-4172,-116,4
1773578188.353584,22.0,29.9,0,-4176,-124,-12
1773578188.374142,22.0,29.9,0,-4176,-124,-12
1773578188.3945441,22.0,29.9,1,-4176,-128,20
1773578188.415254,22.0,29.9,1,-4176,-128,20
1773578188.4355626,22.0,29.9,1,-4176,-128,20
1773578188.4559033,22.0,29.9,1,-4160,-96,20
1773578188.477751,22.0,29.9,1,-4160,-96,20
1773578188.4994211,22.0,29.9,1,-4160,-96,20
1773578188.519681,22.0,29.9,1,-4164,-128,-36
1773578188.5405579,22.0,29.9,1,-4164,-128,-36
1773578188.5613499,22.0,29.9,1,-4164,-80,-8
1773578188.5828536,22.0,29.9,1,-4164,-80,-8
1773578188.6033854,22.0,29.9,1,-4164,-80,-8
1773578188.6241994,22.0,29.9,1,-4168,-96,44
1773578188.6449206,22.0,29.9,1,-4168,-96,44
1773578188.6659994,22.0,29.9,1,-4164,-144,20
1773578188.6866763,22.0,29.9,1,-4164,-144,20
1773578188.7073207,22.0,29.9,1,-4164,-144,20
1773578188.728597,22.0,29.9,1,-4164,-96,-8
1773578188.7517083,22.0,29.9,1,-4164,-96,-8
1773578188.7727094,22.0,29.9,1,-4172,-144,16
1773578188.7931008,22.0,29.9,1,-4172,-144,16
1773578188.813705,22.0,29.9,1,-4172,-144,16
1773578188.8342278,22.0,29.9,1,-4196,-100,24
1773578188.8545692,22.0,29.9,1,-4196,-100,24
1773578188.8749788,22.0,29.9,0,-4164,-64,-4
1773578188.8954868,22.0,29.9,0,-4164,-64,-4
1773578188.9163852,22.0,29.9,0,-4164,-64,-4
1773578188.9372299,22.0,29.9,0,-4192,-140,8
1773578188.9577675,22.0,29.9,0,-4192,-140,8
1773578188.9783132,22.0,29.9,0,-4188,-80,20
1773578189.0033972,22.0,29.9,0,-4188,-80,20
1773578189.0237179,22.0,29.9,0,-4188,-80,20
1773578189.0446804,22.0,29.9,0,-4188,-152,-4
1773578189.0664144,22.0,29.9,0,-4188,-152,-4
1773578189.086854,22.0,29.9,1,-4180,-84,36
1773578189.1083825,22.0,29.9,1,-4180,-84,36
1773578189.1294243,22.0,29.9,1,-4180,-84,36
1773578189.150489,22.0,29.9,1,-4216,-80,28
1773578189.1711366,22.0,29.9,1,-4216,-80,28
1773578189.1919827,22.0,29.9,0,-4228,-200,-32
1773578189.2124743,22.0,29.9,0,-4228,-200,-32
1773578189.233773,22.0,29.9,0,-4228,-200,-32
1773578189.2544775,22.0,29.9,0,-4196,-24,12
1773578189.2751925,22.0,29.9,0,-4196,-24,12
1773578189.2955022,22.0,29.9,1,-4212,-144,40
1773578189.3165379,22.0,29.9,1,-4212,-144,40
1773578189.3371472,22.0,29.9,1,-4212,-144,40
1773578189.3579657,22.0,29.9,1,-4204,-116,4
1773578189.3785553,22.0,29.9,1,-4204,-116,4
1773578189.3993373,22.0,29.9,1,-4204,-116,4
1773578189.419799,22.0,29.9,0,-4144,-284,-32
1773578189.4403024,22.0,29.9,0,-4144,-284,-32
1773578189.4610002,22.0,29.9,0,-4144,-284,-32
1773578189.4818995,22.0,29.7,1,-4180,-172,-8
1773578189.5025105,22.0,29.7,1,-4180,-172,-8
1773578189.5228739,22.0,29.7,1,-4180,-172,-8
1773578189.543893,22.0,29.7,0,-4152,-132,0
1773578189.564331,22.0,29.7,0,-4152,-132,0
1773578189.5844917,22.0,29.7,0,-4152,-132,0
1773578189.604889,22.0,29.7,0,-4184,-100,40
1773578189.6255815,22.0,29.7,0,-4184,-100,40
1773578189.6464612,22.0,29.7,0,-4196,-112,-4
1773578189.667102,22.0,29.7,0,-4196,-112,-4
1773578189.6874661,22.0,29.7,0,-4196,-112,-4
1773578189.708091,22.0,29.7,0,-4220,-76,-8
1773578189.7289202,22.0,29.7,0,-4220,-76,-8
1773578189.749535,22.0,29.7,1,-4152,-184,12
1773578189.7710977,22.0,29.7,1,-4152,-184,12
1773578189.7918541,22.0,29.7,1,-4152,-184,12
1773578189.8123164,22.0,29.7,0,-4152,-84,20
1773578189.8330848,22.0,29.7,0,-4152,-84,20
1773578189.8537338,22.0,29.7,0,-4224,-44,4
1773578189.8742838,22.0,29.7,0,-4224,-44,4
1773578189.8952014,22.0,29.7,0,-4224,-44,4
1773578189.915793,22.0,29.7,1,-4144,-172,-40
1773578189.936532,22.0,29.7,1,-4144,-172,-40
1773578189.9569838,22.0,29.7,1,-4188,-136,24
1773578189.9771643,22.0,29.7,1,-4188,-136,24
1773578189.998524,22.0,29.7,1,-4188,-136,24
1773578190.0206826,22.0,29.7,1,-4180,-4,0
1773578190.0410306,22.0,29.7,1,-4180,-4,0
1773578190.0617814,22.0,29.7,1,-4180,-4,0
1773578190.0830078,22.0,29.7,1,-4164,-128,-24
1773578190.104005,22.0,29.7,1,-4164,-128,-24
1773578190.1246045,22.0,29.7,0,-4220,-80,-12
1773578190.1451757,22.0,29.7,0,-4220,-80,-12
1773578190.1654658,22.0,29.7,0,-4220,-80,-12
1773578190.1861298,22.0,29.7,1,-4184,-48,48
1773578190.2065856,22.0,29.7,1,-4184,-48,48
1773578190.2273395,22.0,29.7,0,-4192,-104,-16
1773578190.2477143,22.0,29.7,0,-4192,-104,-16
1773578190.2699127,22.0,29.7,0,-4192,-104,-16
1773578190.291457,22.0,29.7,0,-4196,-120,-4
1773578190.311996,22.0,29.7,0,-4196,-120,-4
1773578190.3331292,22.0,29.7,1,-4188,-116,12
1773578190.353412,22.0,29.7,1,-4188,-116,12
1773578190.3738303,22.0,29.7,1,-4188,-116,12
1773578190.3946252,22.0,29.7,1,-4224,-104,-8
1773578190.4153185,22.0,29.7,1,-4224,-104,-8
1773578190.4364872,22.0,29.7,1,-4156,-196,-32
1773578190.4573305,22.0,29.7,1,-4156,-196,-32
1773578190.4783616,22.0,29.7,1,-4156,-196,-32
1773578190.4987822,22.0,29.7,1,-4180,-56,68
1773578190.5189764,22.0,29.7,1,-4180,-56,68
1773578190.5394511,22.0,29.7,1,-4180,-56,68
1773578190.5602179,22.0,29.7,1,-4112,-136,4
1773578190.5812552,22.0,29.7,1,-4112,-136,4
1773578190.6032872,22.0,29.7,1,-4124,-156,-32
1773578190.6236877,22.0,29.7,1,-4124,-156,-32
1773578190.6440077,22.0,29.7,1,-4124,-156,-32
1773578190.6648247,22.0,29.7,1,-4164,-120,12
1773578190.6859696,22.0,29.7,1,-4164,-120,12
1773578190.7067528,22.0,29.7,0,-4172,-132,32
1773578190.7272382,22.0,29.7,0,-4172,-132,32
1773578190.7477448,22.0,29.7,0,-4172,-132,32
1773578190.769366,22.0,29.7,0,-4216,-96,-88
1773578190.7897372,22.0,29.7,0,-4216,-96,-88
1773578190.8103266,22.0,29.7,0,-4148,-176,-16
1773578190.8307548,22.0,29.7,0,-4148,-176,-16
1773578190.8512204,22.0,29.7,0,-4148,-176,-16
1773578190.8715005,22.0,29.7,1,-4136,-88,8
1773578190.8922617,22.0,29.7,1,-4136,-88,8
1773578190.913178,22.0,29.7,0,-4180,-160,8
1773578190.9341598,22.0,29.7,0,-4180,-160,8
1773578190.955832,22.0,29.7,0,-4180,-160,8
1773578190.9764006,22.0,29.7,1,-4156,-92,36
1773578190.996994,22.0,29.7,1,-4156,-92,36
1773578191.0172758,22.0,29.7,0,-4192,-148,20
1773578191.037934,22.0,29.7,0,-4192,-148,20
1773578191.0585823,22.0,29.7,0,-4192,-148,20
1773578191.0795248,22.0,29.7,1,-4204,-128,-4
1773578191.1007912,22.0,29.7,1,-4204,-128,-4
1773578191.1215968,22.0,29.7,1,-4204,-128,-4
1773578191.1422663,22.0,29.7,0,-4152,-116,36
1773578191.1631765,22.0,29.7,0,-4152,-116,36
1773578191.1842973,22.0,29.7,1,-4172,-108,0
1773578191.2048135,22.0,29.7,1,-4172,-108,0
1773578191.2255206,22.0,29.7,1,-4172,-108,0
1773578191.2459598,22.0,29.7,1,-4188,-108,12
1773578191.2674668,22.0,29.7,1,-4188,-108,12
1773578191.2881417,22.0,29.7,0,-4212,-60,12
1773578191.3091476,22.0,29.7,0,-4212,-60,12
1773578191.3299136,22.0,29.7,0,-4212,-60,12
1773578191.3509269,22.0,29.7,0,-4176,-128,28
1773578191.3741214,22.0,29.7,0,-4176,-128,28
1773578191.39519,22.0,29.7,1,-4164,-152,-12
1773578191.4164522,22.0,29.7,1,-4164,-152,-12
1773578191.4371545,22.0,29.7,1,-4164,-152,-12
1773578191.4582994,22.0,29.7,0,-4164,-148,20
1773578191.4797418,22.0,29.7,0,-4164,-148,20
1773578191.5006177,22.0,29.7,0,-4164,-148,20
1773578191.5213234,22.0,29.6,1,-4172,-36,20
1773578191.5420382,22.0,29.6,1,-4172,-36,20
1773578191.5627484,22.0,29.6,1,-4172,-36,20
1773578191.5834727,22.0,29.6,0,-4168,-124,12
1773578191.606779,22.0,29.6,0,-4168,-124,12
1773578191.6284597,22.0,29.6,1,-4180,-168,8
1773578191.6487606,22.0,29.6,1,-4180,-168,8
1773578191.6706374,22.0,29.6,1,-4180,-168,8
1773578191.6914868,22.0,29.6,1,-4204,-136,36
1773578191.7118993,22.0,29.6,1,-4204,-136,36
1773578191.732206,22.0,29.6,0,-4204,-92,-4
1773578191.753536,22.0,29.6,0,-4204,-92,-4
1773578191.7739632,22.0,29.6,0,-4204,-92,-4
1773578191.7946205,22.0,29.6,1,-4148,-84,12
1773578191.8151922,22.0,29.6,1,-4148,-84,12
1773578191.836705,22.0,29.6,1,-4148,-84,12
1773578191.857462,22.0,29.6,0,-4140,-152,0
1773578191.8781006,22.0,29.6,0,-4140,-152,0
1773578191.8982334,22.0,29.6,1,-4148,-120,12
1773578191.9193833,22.0,29.6,1,-4148,-120,12
1773578191.939915,22.0,29.6,1,-4148,-120,12
1773578191.9602482,22.0,29.6,1,-4184,-112,32
1773578191.981149,22.0,29.6,1,-4184,-112,32
1773578192.0030203,22.0,29.6,0,-4192,-80,20
1773578192.0241542,22.0,29.6,0,-4192,-80,20
1773578192.0448601,22.0,29.6,0,-4192,-80,20
1773578192.0655577,22.0,29.6,0,-4176,-72,20
1773578192.0871687,22.0,29.6,0,-4176,-72,20
1773578192.1079605,22.0,29.6,1,-4184,-144,-16
1773578192.1286807,22.0,29.6,1,-4184,-144,-16
1773578192.149656,22.0,29.6,1,-4184,-144,-16
1773578192.1708374,22.0,29.6,0,-4188,-156,-8
1773578192.1914704,22.0,29.6,0,-4188,-156,-8
1773578192.2118418,22.0,29.6,0,-4160,-128,20
1773578192.2326975,22.0,29.6,0,-4160,-128,20
1773578192.2532816,22.0,29.6,0,-4160,-128,20
1773578192.2738,22.0,29.6,0,-4212,-36,44
1773578192.2943044,22.0,29.6,0,-4212,-36,44
1773578192.3147967,22.0,29.6,1,-4188,-80,4
1773578192.336788,22.0,29.6,1,-4188,-80,4
1773578192.3571682,22.0,29.6,1,-4188,-80,4
1773578192.3781056,22.0,29.6,0,-4148,-120,8
1773578192.3987095,22.0,29.6,0,-4148,-120,8
1773578192.419137,22.0,29.6,0,-4148,-120,8
1773578192.4397192,22.0,29.6,0,-4192,-124,4
1773578192.4611344,22.0,29.6,0,-4192,-124,4
1773578192.4828699,22.0,29.6,1,-4148,-100,12
1773578192.5033107,22.0,29.6,1,-4148,-100,12
1773578192.5240335,22.0,29.6,1,-4148,-100,12
1773578192.544462,22.0,29.6,1,-4164,-56,4
1773578192.5653703,22.0,29.6,1,-4164,-56,4
1773578192.5870993,22.0,29.6,1,-4160,-152,40
1773578192.6076276,22.0,29.6,1,-4160,-152,40
1773578192.6306365,22.0,29.6,1,-4160,-152,40
1773578192.6540525,22.0,29.6,0,-4184,-140,-8
1773578192.6744988,22.0,29.6,0,-4184,-140,-8
1773578192.694894,22.0,29.6,0,-4180,-172,-12
1773578192.71622,22.0,29.6,0,-4180,-172,-12
1773578192.7369752,22.0,29.6,0,-4180,-172,-12
1773578192.7578254,22.0,29.6,1,-4200,-76,20
1773578192.7784374,22.0,29.6,1,-4200,-76,20
1773578192.7991226,22.0,29.6,1,-4180,-184,-52
1773578192.819533,22.0,29.6,1,-4180,-184,-52
1773578192.8397365,22.0,29.6,1,-4180,-184,-52
1773578192.8605998,22.0,29.6,0,-4172,-56,-24
1773578192.880918,22.0,29.6,0,-4172,-56,-24
1773578192.9020462,22.0,29.6,1,-4180,-152,20
1773578192.9227486,22.0,29.6,1,-4180,-152,20
1773578192.943956,22.0,29.6,1,-4180,-152,20
1773578192.964106,22.0,29.6,1,-4192,-28,0
1773578192.9857328,22.0,29.6,1,-4192,-28,0
1773578193.0062716,22.0,29.6,1,-4192,-52,-20
1773578193.026651,22.0,29.6,1,-4192,-52,-20
1773578193.048564,22.0,29.6,1,-4192,-52,-20
1773578193.0691996,22.0,29.6,0,-4184,-140,32
1773578193.0896676,22.0,29.6,0,-4184,-140,32
1773578193.1101804,22.0,29.6,1,-4196,-44,-16
1773578193.1308322,22.0,29.6,1,-4196,-44,-16
1773578193.1511796,22.0,29.6,1,-4196,-44,-16
1773578193.1720898,22.0,29.6,0,-4196,-60,-20
1773578193.1923933,22.0,29.6,0,-4196,-60,-20
1773578193.2130117,22.0,29.6,0,-4196,-60,-20
1773578193.2339973,22.0,29.6,0,-4060,-276,-44
1773578193.2548387,22.0,29.6,0,-4060,-276,-44
1773578193.2756836,22.0,29.6,0,-4168,-44,44
1773578193.2964623,22.0,29.6,0,-4168,-44,44
1773578193.3175397,22.0,29.6,0,-4168,-44,44
1773578193.3380404,22.0,29.6,0,-4188,-244,-28
1773578193.3587105,22.0,29.6,0,-4188,-244,-28
1773578193.3793418,22.0,29.6,1,-4196,-64,8
1773578193.3999612,22.0,29.6,1,-4196,-64,8
1773578193.4202905,22.0,29.6,1,-4196,-64,8
1773578193.4411314,22.0,29.6,1,-4180,-156,36
1773578193.4623475,22.0,29.6,1,-4180,-156,36
1773578193.4830244,22.0,29.6,1,-4200,-132,44
1773578193.5041063,22.0,29.6,1,-4200,-132,44
1773578193.5246482,22.0,29.6,1,-4200,-132,44
1773578193.5452473,22.0,29.6,1,-4200,-132,44
1773578193.5676725,22.0,29.5,1,-4172,-140,12
1773578193.5879164,22.0,29.5,1,-4172,-140,12
1773578193.608145,22.0,29.5,1,-4172,-140,12
1773578193.6287358,22.0,29.5,0,-4132,-64,-44
1773578193.650792,22.0,29.5,0,-4132,-64,-44
1773578193.671342,22.0,29.5,1,-4160,-92,12
1773578193.6920106,22.0,29.5,1,-4160,-92,12
1773578193.7127237,22.0,29.5,1,-4160,-92,12
1773578193.733739,22.0,29.5,0,-4184,-172,-36
1773578193.754845,22.0,29.5,0,-4184,-172,-36
1773578193.7759802,22.0,29.5,0,-4172,-128,48
1773578193.7963002,22.0,29.5,0,-4172,-128,48
1773578193.8167872,22.0,29.5,0,-4172,-128,48
1773578193.837476,22.0,29.5,0,-4152,24,-28
1773578193.85829,22.0,29.5,0,-4152,24,-28
1773578193.8787649,22.0,29.5,0,-4248,-32,0
1773578193.8992083,22.0,29.5,0,-4248,-32,0
1773578193.9194908,22.0,29.5,0,-4248,-32,0
1773578193.9402223,22.0,29.5,1,-4188,-124,8
1773578193.961019,22.0,29.5,1,-4188,-124,8
1773578193.9818473,22.0,29.5,1,-4188,-124,8
1773578194.0029314,22.0,29.5,1,-4208,-136,-36
1773578194.0234241,22.0,29.5,1,-4208,-136,-36
1773578194.0447028,22.0,29.5,1,-4200,-136,-76
1773578194.0656981,22.0,29.5,1,-4200,-136,-76
1773578194.0868316,22.0,29.5,1,-4200,-136,-76
1773578194.1076677,22.0,29.5,1,-4180,-144,36
1773578194.128438,22.0,29.5,1,-4180,-144,36
1773578194.1496668,22.0,29.5,1,-4200,-112,0
1773578194.1710737,22.0,29.5,1,-4200,-112,0
1773578194.1916032,22.0,29.5,1,-4200,-112,0
1773578194.2125335,22.0,29.5,0,-4180,-128,24
1773578194.2330723,22.0,29.5,0,-4180,-128,24
1773578194.253455,22.0,29.5,1,-4148,-36,36
1773578194.2789364,22.0,29.5,1,-4148,-36,36
1773578194.2996237,22.0,29.5,1,-4148,-36,36
1773578194.3202033,22.0,29.5,1,-4200,-176,36
1773578194.340925,22.0,29.5,1,-4200,-176,36
1773578194.3615184,22.0,29.5,1,-4244,-36,-32
1773578194.3820183,22.0,29.5,1,-4244,-36,-32
1773578194.4025366,22.0,29.5,1,-4244,-36,-32
1773578194.4236305,22.0,29.5,1,-4156,-92,36
1773578194.4443855,22.0,29.5,1,-4156,-92,36
1773578194.465016,22.0,29.5,1,-4192,-68,36
1773578194.4862142,22.0,29.5,1,-4192,-68,36
1773578194.506946,22.0,29.5,1,-4192,-68,36
1773578194.527829,22.0,29.5,0,-4136,-172,8
1773578194.548516,22.0,29.5,0,-4136,-172,8
1773578194.569805,22.0,29.5,0,-4192,-232,-16
1773578194.5902197,22.0,29.5,0,-4192,-232,-16
1773578194.610703,22.0,29.5,0,-4192,-232,-16
1773578194.631652,22.0,29.5,1,-4144,-40,20
1773578194.6529875,22.0,29.5,1,-4144,-40,20
1773578194.6741052,22.0,29.5,1,-4176,-108,0
1773578194.6949692,22.0,29.5,1,-4176,-108,0
1773578194.7161477,22.0,29.5,1,-4176,-108,0
1773578194.7369897,22.0,29.5,0,-4176,-60,-28
1773578194.758257,22.0,29.5,0,-4176,-60,-28
1773578194.7789607,22.0,29.5,1,-4216,-8,12
1773578194.8000956,22.0,29.5,1,-4216,-8,12
1773578194.8213115,22.0,29.5,1,-4216,-8,12
1773578194.8417401,22.0,29.5,1,-4168,-28,-48
1773578194.862152,22.0,29.5,1,-4168,-28,-48
1773578194.8829224,22.0,29.5,1,-4168,-28,-48
1773578194.9035516,22.0,29.5,0,-4092,-188,8
1773578194.9239955,22.0,29.5,0,-4092,-188,8
1773578194.9450512,22.0,29.5,1,-4180,-52,-36
1773578194.9659677,22.0,29.5,1,-4180,-52,-36
1773578194.9870927,22.0,29.5,1,-4180,-52,-36
1773578195.007872,22.0,29.5,0,-4168,-128,32
1773578195.0283952,22.0,29.5,0,-4168,-128,32
1773578195.0491917,22.0,29.5,0,-4188,-68,16
1773578195.0704758,22.0,29.5,0,-4188,-68,16
1773578195.0909922,22.0,29.5,0,-4188,-68,16
1773578195.1118386,22.0,29.5,1,-4136,-100,4
1773578195.1324654,22.0,29.5,1,-4136,-100,4
1773578195.1529844,22.0,29.5,0,-4160,-80,-24
1773578195.1737027,22.0,29.5,0,-4160,-80,-24
1773578195.194807,22.0,29.5,0,-4160,-80,-24
1773578195.2162805,22.0,29.5,0,-4168,-148,-4
1773578195.2367477,22.0,29.5,0,-4168,-148,-4
1773578195.2573965,22.0,29.5,0,-4212,-104,0
1773578195.2783093,22.0,29.5,0,-4212,-104,0
1773578195.2993634,22.0,29.5,0,-4212,-104,0
1773578195.3208036,22.0,29.5,1,-4172,-164,12
1773578195.3414195,22.0,29.5,1,-4172,-164,12
1773578195.3620706,22.0,29.5,0,-4184,-136,44
1773578195.3826122,22.0,29.5,0,-4184,-136,44
1773578195.403245,22.0,29.5,0,-4184,-136,44
1773578195.423548,22.0,29.5,0,-4140,-128,-8
1773578195.4444034,22.0,29.5,0,-4140,-128,-8
1773578195.4648604,22.0,29.5,0,-4140,-128,-8
1773578195.4855764,22.0,29.5,1,-4168,-136,28
1773578195.5063584,22.0,29.5,1,-4168,-136,28
1773578195.5269964,22.0,29.5,1,-4176,-72,32
1773578195.5476007,22.0,29.5,1,-4176,-72,32
1773578195.56801,22.0,29.5,1,-4176,-72,32
1773578195.5884542,22.0,29.5,1,-4176,-72,32
1773578195.6097512,22.0,29.3,1,-4172,-136,8
1773578195.6307173,22.0,29.3,1,-4172,-136,8
1773578195.6529007,22.0,29.3,1,-4172,-136,8
1773578195.674391,22.0,29.3,0,-4152,-168,0
1773578195.6958218,22.0,29.3,0,-4152,-168,0
1773578195.7166975,22.0,29.3,1,-4204,-128,-48
1773578195.7378664,22.0,29.3,1,-4204,-128,-48
1773578195.7586014,22.0,29.3,1,-4204,-152,16
1773578195.7791111,22.0,29.3,1,-4204,-152,16
1773578195.7998917,22.0,29.3,1,-4204,-152,16
1773578195.8210933,22.0,29.3,1,-4172,-148,24
1773578195.8416378,22.0,29.3,1,-4172,-148,24
1773578195.8622203,22.0,29.3,1,-4172,-148,24
1773578195.8828473,22.0,29.3,0,-4236,-148,60
1773578195.9037538,22.0,29.3,0,-4236,-148,60
1773578195.92439,22.0,29.3,1,-4156,-128,-16
1773578195.9455264,22.0,29.3,1,-4156,-128,-16
1773578195.9662895,22.0,29.3,1,-4156,-128,-16
1773578195.9867349,22.0,29.3,1,-4180,-76,24
1773578196.0075483,22.0,29.3,1,-4180,-76,24
1773578196.0282667,22.0,29.3,1,-4184,-156,48
1773578196.0489373,22.0,29.3,1,-4184,-156,48
1773578196.0698123,22.0,29.3,1,-4184,-156,48
1773578196.0912075,22.0,29.3,0,-4224,-128,-36
1773578196.113361,22.0,29.3,0,-4224,-128,-36
1773578196.1339095,22.0,29.3,1,-4180,-4,-32
1773578196.1546974,22.0,29.3,1,-4180,-4,-32
1773578196.1753614,22.0,29.3,1,-4180,-4,-32
1773578196.195928,22.0,29.3,1,-4116,-200,68
1773578196.2178032,22.0,29.3,1,-4116,-200,68
1773578196.238822,22.0,29.3,1,-4168,-152,-60
1773578196.2593613,22.0,29.3,1,-4168,-152,-60
1773578196.2801347,22.0,29.3,1,-4168,-152,-60
1773578196.3008306,22.0,29.3,0,-4160,-112,16
1773578196.3214447,22.0,29.3,0,-4160,-112,16
1773578196.342087,22.0,29.3,0,-4204,-116,56
1773578196.3628001,22.0,29.3,0,-4204,-116,56
1773578196.383626,22.0,29.3,0,-4204,-116,56
1773578196.4050064,22.0,29.3,1,-4168,-76,-12
1773578196.425419,22.0,29.3,1,-4168,-76,-12
1773578196.4459803,22.0,29.3,1,-4168,-76,-12
1773578196.466779,22.0,29.3,0,-4168,-152,32
1773578196.4876912,22.0,29.3,0,-4168,-152,32
1773578196.5080054,22.0,29.3,0,-4140,-16,-44
1773578196.528547,22.0,29.3,0,-4140,-16,-44
1773578196.5490055,22.0,29.3,0,-4140,-16,-44
1773578196.5705204,22.0,29.3,0,-4188,-84,40
1773578196.5914075,22.0,29.3,0,-4188,-84,40
1773578196.6119664,22.0,29.3,1,-4176,-20,-12
1773578196.6326075,22.0,29.3,1,-4176,-20,-12
1773578196.653135,22.0,29.3,1,-4176,-20,-12
1773578196.6735919,22.0,29.3,0,-4192,-100,12
1773578196.694314,22.0,29.3,0,-4192,-100,12
1773578196.714942,22.0,29.3,0,-4208,-116,16
1773578196.7357247,22.0,29.3,0,-4208,-116,16
1773578196.7559516,22.0,29.3,0,-4208,-116,16
1773578196.7764149,22.0,29.3,0,-4140,-168,-16
1773578196.797155,22.0,29.3,0,-4140,-168,-16
1773578196.8185856,22.0,29.3,0,-4140,-168,-16
1773578196.8391578,22.0,29.3,1,-4156,-76,-8
1773578196.8600464,22.0,29.3,1,-4156,-76,-8
1773578196.881388,22.0,29.3,1,-4180,-124,-20
1773578196.902134,22.0,29.3,1,-4180,-124,-20
1773578196.92434,22.0,29.3,1,-4180,-124,-20
1773578196.944938,22.0,29.3,1,-4204,-148,20
1773578196.9656572,22.0,29.3,1,-4204,-148,20
1773578196.9878232,22.0,29.3,0,-4160,-56,4
1773578197.0084622,22.0,29.3,0,-4160,-56,4
1773578197.028959,22.0,29.3,0,-4160,-56,4
1773578197.0493786,22.0,29.3,1,-4224,-188,-44
1773578197.0699275,22.0,29.3,1,-4224,-188,-44
1773578197.0903609,22.0,29.3,1,-4212,-156,36
1773578197.111343,22.0,29.3,1,-4212,-156,36
1773578197.1322548,22.0,29.3,1,-4212,-156,36
1773578197.1535225,22.0,29.3,0,-4240,44,60
1773578197.1739502,22.0,29.3,0,-4240,44,60
1773578197.1946084,22.0,29.3,1,-4180,-184,-12
1773578197.2159357,22.0,29.3,1,-4180,-184,-12
1773578197.2366798,22.0,29.3,1,-4180,-184,-12
1773578197.257487,22.0,29.3,0,-4168,-112,0
1773578197.2786338,22.0,29.3,0,-4168,-112,0
1773578197.2995725,22.0,29.3,1,-4204,-36,-40
1773578197.3203933,22.0,29.3,1,-4204,-36,-40
1773578197.340947,22.0,29.3,1,-4204,-36,-40
1773578197.3622305,22.0,29.3,1,-4164,-204,-28
1773578197.3825815,22.0,29.3,1,-4164,-204,-28
1773578197.4039686,22.0,29.3,1,-4156,-152,20
1773578197.4252229,22.0,29.3,1,-4156,-152,20
1773578197.446242,22.0,29.3,1,-4156,-152,20
1773578197.4666455,22.0,29.3,1,-4188,-56,12
1773578197.4875653,22.0,29.3,1,-4188,-56,12
1773578197.5081267,22.0,29.3,1,-4188,-56,12
1773578197.5298254,22.0,29.3,1,-4180,-144,-64
1773578197.5505183,22.0,29.3,1,-4180,-144,-64
1773578197.5716872,22.0,29.3,0,-4180,-8,-64
1773578197.5921955,22.0,29.3,0,-4180,-8,-64
1773578197.6131885,22.0,29.3,0,-4180,-8,-64
1773578197.634287,22.0,29.3,0,-4180,-8,-64
1773578197.6555223,22.0,29.3,0,-4176,-136,-12
1773578197.676048,22.0,29.3,0,-4176,-136,-12
1773578197.6971478,22.0,29.3,1,-4216,-20,40
1773578197.7186403,22.0,29.3,1,-4216,-20,40
1773578197.7391446,22.0,29.3,1,-4216,-20,40
1773578197.7599814,22.0,29.3,1,-4208,-148,-8
1773578197.7803667,22.0,29.3,1,-4208,-148,-8
1773578197.800916,22.0,29.3,0,-4164,-52,-16
1773578197.8214066,22.0,29.3,0,-4164,-52,-16
1773578197.8419669,22.0,29.3,0,-4164,-52,-16
1773578197.8629143,22.0,29.3,1,-4192,-76,48
1773578197.8835177,22.0,29.3,1,-4192,-76,48
1773578197.9040306,22.0,29.3,1,-4120,-24,64
1773578197.9243016,22.0,29.3,1,-4120,-24,64
1773578197.944749,22.0,29.3,1,-4120,-24,64
1773578197.9652078,22.0,29.3,0,-4188,-136,-36
1773578197.9865308,22.0,29.3,0,-4188,-136,-36
1773578198.0072875,22.0,29.3,0,-4188,-136,-36
1773578198.027775,22.0,29.3,1,-4180,-116,-20
1773578198.0483835,22.0,29.3,1,-4180,-116,-20
1773578198.0688236,22.0,29.3,1,-4208,-120,48
1773578198.0893295,22.0,29.3,1,-4208,-120,48
1773578198.110113,22.0,29.3,1,-4208,-120,48
1773578198.131069,22.0,29.3,0,-4144,-168,-24
1773578198.1535888,22.0,29.3,0,-4144,-168,-24
1773578198.1741366,22.0,29.3,0,-4196,-148,-24
1773578198.194755,22.0,29.3,0,-4196,-148,-24
1773578198.215893,22.0,29.3,0,-4196,-148,-24
1773578198.2365594,22.0,29.3,0,-4204,-64,52
1773578198.2573586,22.0,29.3,0,-4204,-64,52
1773578198.278163,22.0,29.3,0,-4172,-160,28
1773578198.2987413,22.0,29.3,0,-4172,-160,28
1773578198.3200011,22.0,29.3,0,-4172,-160,28
1773578198.3406587,22.0,29.3,0,-4188,-96,-24
1773578198.3614144,22.0,29.3,0,-4188,-96,-24
1773578198.38171,22.0,29.3,1,-4172,-124,8
1773578198.402303,22.0,29.3,1,-4172,-124,8
1773578198.423113,22.0,29.3,1,-4172,-124,8
1773578198.4435618,22.0,29.3,1,-4196,-172,12
1773578198.4642942,22.0,29.3,1,-4196,-172,12
1773578198.485527,22.0,29.3,1,-4196,-172,12
1773578198.5064204,22.0,29.3,1,-4160,-84,-32
1773578198.5268965,22.0,29.3,1,-4160,-84,-32
1773578198.5476778,22.0,29.3,1,-4216,-68,-64
1773578198.5694761,22.0,29.3,1,-4216,-68,-64
1773578198.590073,22.0,29.3,1,-4216,-68,-64
1773578198.6107028,22.0,29.3,0,-4188,-124,84
1773578198.6321173,22.0,29.3,0,-4188,-124,84
1773578198.6526687,22.0,29.3,1,-4112,-132,-28
1773578198.6736577,22.0,29.3,1,-4112,-132,-28
1773578198.694314,22.0,29.3,1,-4112,-132,-28
1773578198.7149904,22.0,29.3,0,-4148,-152,-16
1773578198.7353497,22.0,29.3,0,-4148,-152,-16
1773578198.7555368,22.0,29.3,1,-4168,-56,52
1773578198.7757792,22.0,29.3,1,-4168,-56,52
1773578198.7962153,22.0,29.3,1,-4168,-56,52
1773578198.8168883,22.0,29.3,1,-4168,-220,-44
1773578198.8371904,22.0,29.3,1,-4168,-220,-44
1773578198.8578253,22.0,29.3,1,-4168,-220,-44
1773578198.8783152,22.0,29.3,0,-4220,-148,12
1773578198.9033842,22.0,29.3,0,-4220,-148,12
1773578198.9247875,22.0,29.3,1,-4168,-92,20
1773578198.9457273,22.0,29.3,1,-4168,-92,20
1773578198.9659693,22.0,29.3,1,-4172,-176,16
1773578198.987335,22.0,29.3,1,-4172,-176,16
1773578199.0077047,22.0,29.3,1,-4172,-176,16
1773578199.0281825,22.0,29.3,0,-4180,-136,-40
1773578199.048591,22.0,29.3,0,-4180,-136,-40
1773578199.0692835,22.0,29.3,0,-4180,-136,-40
1773578199.0896153,22.0,29.3,1,-4148,-176,-4
1773578199.110261,22.0,29.3,1,-4148,-176,-4
1773578199.1310341,22.0,29.3,1,-4184,-24,12
1773578199.1515799,22.0,29.3,1,-4184,-24,12
1773578199.1727772,22.0,29.3,1,-4184,-24,12
1773578199.1934965,22.0,29.3,0,-4172,-52,-112
1773578199.214014,22.0,29.3,0,-4172,-52,-112
1773578199.234465,22.0,29.3,0,-4216,-88,0
1773578199.2548404,22.0,29.3,0,-4216,-88,0
1773578199.2752411,22.0,29.3,0,-4216,-88,0
1773578199.295735,22.0,29.3,1,-4144,-112,16
1773578199.316373,22.0,29.3,1,-4144,-112,16
1773578199.336968,22.0,29.3,0,-4172,-120,-24
1773578199.3578455,22.0,29.3,0,-4172,-120,-24
1773578199.3785374,22.0,29.3,0,-4172,-120,-24
1773578199.3992574,22.0,29.3,1,-4120,-232,4
1773578199.4197197,22.0,29.3,1,-4120,-232,4
1773578199.4403467,22.0,29.3,1,-4120,-232,4
1773578199.4608648,22.0,29.3,1,-4168,8,4
1773578199.4811776,22.0,29.3,1,-4168,8,4
1773578199.5015337,22.0,29.3,1,-4156,-108,0
1773578199.5221193,22.0,29.3,1,-4156,-108,0
1773578199.5428224,22.0,29.3,1,-4156,-108,0
1773578199.5633576,22.0,29.3,1,-4140,-68,8
1773578199.5838885,22.0,29.3,1,-4140,-68,8
1773578199.6041481,22.0,29.3,0,-4180,-160,-16
1773578199.6249886,22.0,29.3,0,-4180,-160,-16
1773578199.6457078,22.0,29.3,0,-4180,-160,-16
1773578199.666085,22.0,29.3,0,-4180,-160,-16
1773578199.6867776,22.0,29.2,0,-4204,-64,-28
1773578199.707333,22.0,29.2,0,-4204,-64,-28
1773578199.7281966,22.0,29.2,0,-4204,-64,-28
1773578199.7488518,22.0,29.2,1,-4156,-104,20
1773578199.769922,22.0,29.2,1,-4156,-104,20
1773578199.7904344,22.0,29.2,1,-4172,-40,56
1773578199.81084,22.0,29.2,1,-4172,-40,56
1773578199.8318627,22.0,29.2,1,-4172,-40,56
1773578199.8521833,22.0,29.2,0,-4180,-96,8
1773578199.8727932,22.0,29.2,0,-4180,-96,8
1773578199.8936255,22.0,29.2,0,-4140,-152,-32
1773578199.9141238,22.0,29.2,0,-4140,-152,-32
1773578199.93466,22.0,29.2,0,-4140,-152,-32
1773578199.9552035,22.0,29.2,0,-4236,-16,48
1773578199.975657,22.0,29.2,0,-4236,-16,48
1773578199.9960725,22.0,29.2,0,-4236,-16,48
1773578200.0167792,22.0,29.2,1,-4160,-76,-4
1773578200.0374384,22.0,29.2,1,-4160,-76,-4
1773578200.057961,22.0,29.2,0,-4188,44,-24
1773578200.0785828,22.0,29.2,0,-4188,44,-24
1773578200.0988247,22.0,29.2,0,-4188,44,-24
1773578200.12056,22.0,29.2,0,-4160,-172,36
1773578200.1411197,22.0,29.2,0,-4160,-172,36
1773578200.1619258,22.0,29.2,0,-4196,-152,32
1773578200.18249,22.0,29.2,0,-4196,-152,32
1773578200.2031267,22.0,29.2,0,-4196,-152,32
1773578200.2241251,22.0,29.2,0,-4124,-204,-60
1773578200.2449112,22.0,29.2,0,-4124,-204,-60
1773578200.2653317,22.0,29.2,0,-4172,-88,24
1773578200.2858422,22.0,29.2,0,-4172,-88,24
1773578200.3064995,22.0,29.2,0,-4172,-88,24
1773578200.3270414,22.0,29.2,1,-4200,52,-28
1773578200.3478606,22.0,29.2,1,-4200,52,-28
1773578200.3682537,22.0,29.2,0,-4168,-164,-12
1773578200.3889692,22.0,29.2,0,-4168,-164,-12
1773578200.4094925,22.0,29.2,0,-4168,-164,-12
1773578200.4301789,22.0,29.2,0,-4088,4,-28
1773578200.450619,22.0,29.2,0,-4088,4,-28
1773578200.4712493,22.0,29.2,0,-4088,4,-28
1773578200.491655,22.0,29.2,1,-4188,-168,36
1773578200.512074,22.0,29.2,1,-4188,-168,36
1773578200.5324566,22.0,29.2,1,-4188,-20,-4
1773578200.5533173,22.0,29.2,1,-4188,-20,-4
1773578200.5738034,22.0,29.2,1,-4188,-20,-4
1773578200.594416,22.0,29.2,1,-4148,-120,8
1773578200.6147776,22.0,29.2,1,-4148,-120,8
1773578200.6359785,22.0,29.2,0,-4152,-92,8
1773578200.6562817,22.0,29.2,0,-4152,-92,8
1773578200.6768434,22.0,29.2,0,-4152,-92,8
1773578200.6973498,22.0,29.2,1,-4116,-220,-12
1773578200.7190337,22.0,29.2,1,-4116,-220,-12
1773578200.7395763,22.0,29.2,0,-4192,-52,8
1773578200.7600274,22.0,29.2,0,-4192,-52,8
1773578200.780877,22.0,29.2,0,-4192,-52,8
1773578200.8012958,22.0,29.2,1,-4176,-148,32
1773578200.821788,22.0,29.2,1,-4176,-148,32
1773578200.842138,22.0,29.2,1,-4176,-148,32
1773578200.862582,22.0,29.2,0,-4100,-28,12
1773578200.8831074,22.0,29.2,0,-4100,-28,12
1773578200.9037411,22.0,29.2,1,-4124,-132,-36
1773578200.9245114,22.0,29.2,1,-4124,-132,-36
1773578200.9530957,22.0,29.2,1,-4124,-132,-36
1773578200.9740164,22.0,29.2,0,-4176,-100,12
1773578200.9944282,22.0,29.2,0,-4176,-100,12
1773578201.0145912,22.0,29.2,1,-4160,-156,8
1773578201.0372972,22.0,29.2,1,-4160,-156,8
1773578201.058255,22.0,29.2,1,-4160,-156,8
1773578201.0787923,22.0,29.2,0,-4220,-172,28
1773578201.0991528,22.0,29.2,0,-4220,-172,28
1773578201.1201348,22.0,29.2,1,-4164,-152,24
1773578201.1406682,22.0,29.2,1,-4164,-152,24
1773578201.1612325,22.0,29.2,1,-4164,-152,24
1773578201.1820772,22.0,29.2,0,-4136,-208,12
1773578201.202683,22.0,29.2,0,-4136,-208,12
1773578201.2230783,22.0,29.2,1,-4152,-104,36
1773578201.2435088,22.0,29.2,1,-4152,-104,36
1773578201.2650743,22.0,29.2,1,-4152,-104,36
1773578201.28554,22.0,29.2,0,-4156,-192,-4
1773578201.3061347,22.0,29.2,0,-4156,-192,-4
1773578201.327001,22.0,29.2,0,-4188,-112,36
1773578201.347336,22.0,29.2,0,-4188,-112,36
1773578201.3682532,22.0,29.2,0,-4188,-112,36
1773578201.3887978,22.0,29.2,1,-4184,-60,4
1773578201.4093099,22.0,29.2,1,-4184,-60,4
1773578201.4296088,22.0,29.2,0,-4176,-72,36
1773578201.4499893,22.0,29.2,0,-4176,-72,36
1773578201.470197,22.0,29.2,0,-4176,-72,36
1773578201.4905796,22.0,29.2,1,-4136,-164,-48
1773578201.511098,22.0,29.2,1,-4136,-164,-48
1773578201.531721,22.0,29.2,1,-4136,-164,-48
1773578201.5522888,22.0,29.2,1,-4144,-120,36
1773578201.5725918,22.0,29.2,1,-4144,-120,36
1773578201.5932665,22.0,29.2,1,-4168,-84,20
1773578201.6139338,22.0,29.2,1,-4168,-84,20
1773578201.634294,22.0,29.2,1,-4168,-84,20
1773578201.6559916,22.0,29.2,0,-4164,-60,4
1773578201.676974,22.0,29.2,0,-4164,-60,4
1773578201.6974113,22.0,29.2,0,-4164,-60,4
1773578201.7179945,22.0,29.2,0,-4164,-60,4
1773578201.7382922,22.0,29.2,0,-4180,-104,-20
1773578201.758948,22.0,29.2,0,-4180,-104,-20
1773578201.7791429,22.0,29.2,1,-4224,-136,-12
1773578201.7993774,22.0,29.2,1,-4224,-136,-12
1773578201.820455,22.0,29.2,1,-4224,-136,-12
1773578201.840821,22.0,29.2,1,-4172,-184,8
1773578201.8615117,22.0,29.2,1,-4172,-184,8
1773578201.8819046,22.0,29.2,0,-4160,-24,12
1773578201.90289,22.0,29.2,0,-4160,-24,12
1773578201.924101,22.0,29.2,0,-4160,-24,12
1773578201.9481664,22.0,29.2,1,-4168,-80,-64
1773578201.9688723,22.0,29.2,1,-4168,-80,-64
1773578201.9895325,22.0,29.2,0,-4128,-156,-4
1773578202.0101278,22.0,29.2,0,-4128,-156,-4
1773578202.030657,22.0,29.2,0,-4128,-156,-4
1773578202.0510778,22.0,29.2,0,-4216,-68,-36
1773578202.071571,22.0,29.2,0,-4216,-68,-36
1773578202.0921082,22.0,29.2,0,-4172,-116,-8
1773578202.1126287,22.0,29.2,0,-4172,-116,-8
1773578202.1331763,22.0,29.2,0,-4172,-116,-8
1773578202.1537015,22.0,29.2,1,-4192,-136,12
1773578202.174162,22.0,29.2,1,-4192,-136,12
1773578202.194652,22.0,29.2,1,-4192,-136,12
1773578202.215093,22.0,29.2,0,-4216,-60,56
1773578202.2357888,22.0,29.2,0,-4216,-60,56
1773578202.2572947,22.0,29.2,0,-4160,-240,8
1773578202.2779648,22.0,29.2,0,-4160,-240,8
1773578202.2986555,22.0,29.2,0,-4160,-240,8
1773578202.3194559,22.0,29.2,1,-4180,-80,-8
1773578202.3399463,22.0,29.2,1,-4180,-80,-8
1773578202.3605752,22.0,29.2,0,-4204,-268,-56
1773578202.3810086,22.0,29.2,0,-4204,-268,-56
1773578202.4031215,22.0,29.2,0,-4204,-268,-56
1773578202.4237294,22.0,29.2,0,-4164,-96,12
1773578202.4440928,22.0,29.2,0,-4164,-96,12
1773578202.46439,22.0,29.2,0,-4152,-148,-52
1773578202.484631,22.0,29.2,0,-4152,-148,-52
1773578202.5050635,22.0,29.2,0,-4152,-148,-52
1773578202.525764,22.0,29.2,0,-4196,-68,20
1773578202.546433,22.0,29.2,0,-4196,-68,20
1773578202.566646,22.0,29.2,0,-4196,-68,20
1773578202.5873609,22.0,29.2,1,-4164,-64,28
1773578202.6081676,22.0,29.2,1,-4164,-64,28
1773578202.628846,22.0,29.2,1,-4216,-72,20
1773578202.649252,22.0,29.2,1,-4216,-72,20
1773578202.6700087,22.0,29.2,1,-4216,-72,20
1773578202.6907477,22.0,29.2,0,-4172,-72,52
1773578202.7113879,22.0,29.2,0,-4172,-72,52
1773578202.73169,22.0,29.2,1,-4116,-92,-44
1773578202.7526474,22.0,29.2,1,-4116,-92,-44
1773578202.7731502,22.0,29.2,1,-4116,-92,-44
1773578202.7936678,22.0,29.2,1,-4088,-92,-8
1773578202.8140767,22.0,29.2,1,-4088,-92,-8
1773578202.8345187,22.0,29.2,0,-4220,-84,16
1773578202.8551104,22.0,29.2,0,-4220,-84,16
1773578202.8757093,22.0,29.2,0,-4220,-84,16
1773578202.8962224,22.0,29.2,0,-4148,-192,28
1773578202.9167705,22.0,29.2,0,-4148,-192,28
1773578202.9376092,22.0,29.2,0,-4148,-192,28
1773578202.9579494,22.0,29.2,0,-4160,-84,-12
1773578202.978514,22.0,29.2,0,-4160,-84,-12
1773578202.9990501,22.0,29.2,0,-4184,-124,40
1773578203.0198057,22.0,29.2,0,-4184,-124,40
1773578203.0405304,22.0,29.2,0,-4184,-124,40
1773578203.0616205,22.0,29.2,1,-4148,-100,-4
1773578203.082172,22.0,29.2,1,-4148,-100,-4
1773578203.1027925,22.0,29.2,1,-4176,-124,-28
1773578203.1232421,22.0,29.2,1,-4176,-124,-28
1773578203.1436284,22.0,29.2,1,-4176,-124,-28
1773578203.163944,22.0,29.2,1,-4160,-120,-20
1773578203.1844094,22.0,29.2,1,-4160,-120,-20
1773578203.2051709,22.0,29.2,0,-4156,-36,72
1773578203.2257838,22.0,29.2,0,-4156,-36,72
1773578203.2464528,22.0,29.2,0,-4156,-36,72
1773578203.2669406,22.0,29.2,0,-4084,-196,-32
1773578203.2875664,22.0,29.2,0,-4084,-196,-32
1773578203.3077521,22.0,29.2,0,-4084,-196,-32
1773578203.3285503,22.0,29.2,1,-4136,-188,-8
1773578203.349282,22.0,29.2,1,-4136,-188,-8
1773578203.3698556,22.0,29.2,0,-4220,-92,-4
1773578203.390588,22.0,29.2,0,-4220,-92,-4
1773578203.4112284,22.0,29.2,0,-4220,-92,-4
1773578203.4314895,22.0,29.2,0,-4112,-180,-28
1773578203.4518223,22.0,29.2,0,-4112,-180,-28
1773578203.4724622,22.0,29.2,1,-4156,-84,-56
1773578203.4931355,22.0,29.2,1,-4156,-84,-56
1773578203.513649,22.0,29.2,1,-4156,-84,-56
1773578203.534031,22.0,29.2,0,-4216,-100,12
1773578203.5544376,22.0,29.2,0,-4216,-100,12
1773578203.5750535,22.0,29.2,0,-4192,-100,24
1773578203.595533,22.0,29.2,0,-4192,-100,24
1773578203.6159713,22.0,29.2,0,-4192,-100,24
1773578203.6364722,22.0,29.2,1,-4184,-84,-4
1773578203.656956,22.0,29.2,1,-4184,-84,-4
1773578203.677663,22.0,29.2,1,-4184,-84,-4
1773578203.698196,22.0,29.2,1,-4172,-84,4
1773578203.7191443,22.0,29.2,1,-4172,-84,4
1773578203.7396088,22.0,29.2,1,-4172,-84,4
1773578203.7599936,22.0,28.6,1,-4124,-120,-32
1773578203.780807,22.0,28.6,1,-4124,-120,-32
1773578203.801496,22.0,28.6,1,-4124,-120,-32
1773578203.8223877,22.0,28.6,0,-4196,-140,16
1773578203.8426614,22.0,28.6,0,-4196,-140,16
1773578203.8629081,22.0,28.6,0,-4196,-140,16
1773578203.8837123,22.0,28.6,0,-4192,-88,44
1773578203.905994,22.0,28.6,0,-4192,-88,44
1773578203.9266798,22.0,28.6,1,-4168,-140,-52
1773578203.947407,22.0,28.6,1,-4168,-140,-52
1773578203.9689193,22.0,28.6,1,-4168,-140,-52
1773578203.9892735,22.0,28.6,1,-4188,-88,12
1773578204.0099418,22.0,28.6,1,-4188,-88,12
1773578204.0306158,22.0,28.6,0,-4196,-84,84
1773578204.051115,22.0,28.6,0,-4196,-84,84
1773578204.07216,22.0,28.6,0,-4196,-84,84
1773578204.0932498,22.0,28.6,0,-4164,-132,-16
1773578204.1137903,22.0,28.6,0,-4164,-132,-16
1773578204.134151,22.0,28.6,0,-4144,-124,-24
1773578204.1545093,22.0,28.6,0,-4144,-124,-24
1773578204.1752148,22.0,28.6,0,-4144,-124,-24
1773578204.1960893,22.0,28.6,0,-4208,-92,80
1773578204.2165833,22.0,28.6,0,-4208,-92,80
1773578204.2370582,22.0,28.6,0,-4204,-112,32
1773578204.2575238,22.0,28.6,0,-4204,-112,32
1773578204.2783787,22.0,28.6,0,-4204,-112,32
1773578204.2991245,22.0,28.6,1,-4132,-128,-56
1773578204.3196545,22.0,28.6,1,-4132,-128,-56
1773578204.3402936,22.0,28.6,1,-4132,-128,-56
1773578204.3608856,22.0,28.6,0,-4172,-96,60
1773578204.3816216,22.0,28.6,0,-4172,-96,60
1773578204.4037712,22.0,28.6,0,-4200,-100,48
1773578204.4255102,22.0,28.6,0,-4200,-100,48
1773578204.445974,22.0,28.6,0,-4200,-100,48
1773578204.4666235,22.0,28.6,1,-4140,-152,-40
1773578204.4871583,22.0,28.6,1,-4140,-152,-40
1773578204.5077612,22.0,28.6,1,-4164,-124,20
1773578204.5280547,22.0,28.6,1,-4164,-124,20
1773578204.5487854,22.0,28.6,1,-4164,-124,20
1773578204.5691767,22.0,28.6,0,-4220,-104,56
1773578204.589708,22.0,28.6,0,-4220,-104,56
1773578204.6102884,22.0,28.6,1,-4168,-104,-32
1773578204.6312594,22.0,28.6,1,-4168,-104,-32
1773578204.6518962,22.0,28.6,1,-4168,-104,-32
1773578204.6725323,22.0,28.6,1,-4128,-112,-52
1773578204.6927245,22.0,28.6,1,-4128,-112,-52
1773578204.7143898,22.0,28.6,1,-4128,-112,-52
1773578204.7350883,22.0,28.6,0,-4208,-104,56
1773578204.7556558,22.0,28.6,0,-4208,-104,56
1773578204.776357,22.0,28.6,1,-4172,-124,0
1773578204.7969623,22.0,28.6,1,-4172,-124,0
1773578204.8175213,22.0,28.6,1,-4172,-124,0
1773578204.8382862,22.0,28.6,1,-4112,-120,-48
1773578204.8586588,22.0,28.6,1,-4112,-120,-48
1773578204.8788478,22.0,28.6,1,-4168,-124,16
1773578204.89936,22.0,28.6,1,-4168,-124,16
1773578204.9197624,22.0,28.6,1,-4168,-124,16
1773578204.9405727,22.0,28.6,0,-4188,-104,16
1773578204.9609437,22.0,28.6,0,-4188,-104,16
1773578204.9813812,22.0,28.6,1,-4128,-140,-48
1773578205.0028183,22.0,28.6,1,-4128,-140,-48
1773578205.023157,22.0,28.6,1,-4128,-140,-48
1773578205.0438957,22.0,28.6,1,-4176,-112,52
1773578205.06772,22.0,28.6,1,-4176,-112,52
1773578205.0924244,22.0,28.6,0,-4196,-92,56
1773578205.1131084,22.0,28.6,0,-4196,-92,56
1773578205.1336234,22.0,28.6,0,-4196,-92,56
1773578205.1541798,22.0,28.6,0,-4152,-136,-52
1773578205.1746938,22.0,28.6,0,-4152,-136,-52
1773578205.195238,22.0,28.6,1,-4152,-136,-72
1773578205.2156258,22.0,28.6,1,-4152,-136,-72
1773578205.236186,22.0,28.6,1,-4152,-136,-72
1773578205.2567286,22.0,28.6,0,-4204,-104,60
1773578205.2774103,22.0,28.6,0,-4204,-104,60
1773578205.2980509,22.0,28.6,0,-4140,-80,12
1773578205.3187182,22.0,28.6,0,-4140,-80,12
1773578205.3394604,22.0,28.6,0,-4140,-80,12
1773578205.3599145,22.0,28.6,1,-4140,-140,-76
1773578205.380315,22.0,28.6,1,-4140,-140,-76
1773578205.4009137,22.0,28.6,1,-4140,-140,-76
1773578205.4215248,22.0,28.6,0,-4216,-84,28
1773578205.4424279,22.0,28.6,0,-4216,-84,28
1773578205.4630148,22.0,28.6,0,-4176,-80,56
1773578205.4838958,22.0,28.6,0,-4176,-80,56
1773578205.5040376,22.0,28.6,0,-4176,-80,56
1773578205.5247529,22.0,28.6,1,-4140,-148,-48
1773578205.5455525,22.0,28.6,1,-4140,-148,-48
1773578205.5660777,22.0,28.6,1,-4200,-128,-24
1773578205.586601,22.0,28.6,1,-4200,-128,-24
1773578205.606783,22.0,28.6,1,-4200,-128,-24
1773578205.6272848,22.0,28.6,0,-4192,-76,64
1773578205.6478019,22.0,28.6,0,-4192,-76,64
1773578205.6685343,22.0,28.6,0,-4156,-132,20
1773578205.689583,22.0,28.6,0,-4156,-132,20
1773578205.710286,22.0,28.6,0,-4156,-132,20
1773578205.7305808,22.0,28.6,1,-4152,-120,-28
1773578205.7512355,22.0,28.6,1,-4152,-120,-28
1773578205.772381,22.0,28.6,1,-4152,-120,-28
1773578205.794472,22.0,28.6,1,-4152,-120,-28
1773578205.8153203,22.0,29.1,0,-4172,-112,-16
1773578205.836157,22.0,29.1,0,-4172,-112,-16
1773578205.8563235,22.0,29.1,1,-4164,-188,-20
1773578205.8766663,22.0,29.1,1,-4164,-188,-20
1773578205.8971786,22.0,29.1,1,-4164,-188,-20
1773578205.917932,22.0,29.1,0,-4220,-92,52
1773578205.938581,22.0,29.1,0,-4220,-92,52
1773578205.9587479,22.0,29.1,0,-4052,-84,-8
1773578205.9793913,22.0,29.1,0,-4052,-84,-8
1773578206.0000205,22.0,29.1,0,-4052,-84,-8
1773578206.020372,22.0,29.1,1,-4120,-216,-72
1773578206.041338,22.0,29.1,1,-4120,-216,-72
1773578206.062311,22.0,29.1,1,-4120,-216,-72
1773578206.0834117,22.0,29.1,0,-4188,-124,32
1773578206.1040964,22.0,29.1,0,-4188,-124,32
1773578206.1260688,22.0,29.1,0,-4100,-116,-48
1773578206.146737,22.0,29.1,0,-4100,-116,-48
1773578206.167338,22.0,29.1,0,-4100,-116,-48
1773578206.1880004,22.0,29.1,0,-4148,-52,-36
1773578206.2087348,22.0,29.1,0,-4148,-52,-36
1773578206.2293391,22.0,29.1,1,-4220,-92,12
1773578206.2500134,22.0,29.1,1,-4220,-92,12
1773578206.2703903,22.0,29.1,1,-4220,-92,12
1773578206.2911339,22.0,29.1,0,-4200,-60,60
1773578206.3120396,22.0,29.1,0,-4200,-60,60
1773578206.3327348,22.0,29.1,1,-4140,-172,-44
1773578206.353063,22.0,29.1,1,-4140,-172,-44
1773578206.3735006,22.0,29.1,1,-4140,-172,-44
1773578206.3940277,22.0,29.1,1,-4160,-124,-16
1773578206.4163868,22.0,29.1,1,-4160,-124,-16
1773578206.4366152,22.0,29.1,0,-4188,-100,76
1773578206.45695,22.0,29.1,0,-4188,-100,76
1773578206.4776397,22.0,29.1,0,-4188,-100,76
1773578206.4982343,22.0,29.1,0,-4180,-68,16
1773578206.5188367,22.0,29.1,0,-4180,-68,16
1773578206.5394027,22.0,29.1,0,-4180,-68,16
1773578206.5602791,22.0,29.1,1,-4164,-76,-60
1773578206.5807047,22.0,29.1,1,-4164,-76,-60
1773578206.6013708,22.0,29.1,0,-4196,-168,48
1773578206.6219785,22.0,29.1,0,-4196,-168,48
1773578206.6427119,22.0,29.1,0,-4196,-168,48
1773578206.6632063,22.0,29.1,0,-4172,-140,16
1773578206.6837409,22.0,29.1,0,-4172,-140,16
1773578206.704324,22.0,29.1,1,-4100,-140,-64
1773578206.7250452,22.0,29.1,1,-4100,-140,-64
1773578206.7454603,22.0,29.1,1,-4100,-140,-64
1773578206.7660744,22.0,29.1,0,-4164,8,40
1773578206.7864895,22.0,29.1,0,-4164,8,40
1773578206.8069513,22.0,29.1,0,-4164,8,40
1773578206.827308,22.0,29.1,1,-4212,-128,-28
1773578206.847514,22.0,29.1,1,-4212,-128,-28
1773578206.8678243,22.0,29.1,1,-4160,-96,24
1773578206.8885026,22.0,29.1,1,-4160,-96,24
1773578206.908936,22.0,29.1,1,-4160,-96,24
1773578206.9294827,22.0,29.1,1,-4140,-188,-28
1773578206.9497793,22.0,29.1,1,-4140,-188,-28
1773578206.9704468,22.0,29.1,0,-4216,16,60
1773578206.9919393,22.0,29.1,0,-4216,16,60
1773578207.012588,22.0,29.1,0,-4216,16,60
1773578207.0329225,22.0,29.1,0,-4140,-176,0
1773578207.0547543,22.0,29.1,0,-4140,-176,0
1773578207.0780573,22.0,29.1,1,-4136,-180,-64
1773578207.0986667,22.0,29.1,1,-4136,-180,-64
1773578207.120439,22.0,29.1,1,-4136,-180,-64
1773578207.141189,22.0,29.1,1,-4180,-108,-4
1773578207.162099,22.0,29.1,1,-4180,-108,-4
1773578207.1826768,22.0,29.1,0,-4216,-92,144
1773578207.203839,22.0,29.1,0,-4216,-92,144
1773578207.2250943,22.0,29.1,0,-4216,-92,144
1773578207.2453995,22.0,29.1,1,-4160,-104,-68
1773578207.2658052,22.0,29.1,1,-4160,-104,-68
1773578207.2865958,22.0,29.1,1,-4164,-132,32
1773578207.3073404,22.0,29.1,1,-4164,-132,32
1773578207.3282588,22.0,29.1,1,-4164,-132,32
1773578207.3485715,22.0,29.1,0,-4176,-172,52
1773578207.368919,22.0,29.1,0,-4176,-172,52
1773578207.3907003,22.0,29.1,0,-4160,-88,-20
1773578207.4112573,22.0,29.1,0,-4160,-88,-20
1773578207.4322002,22.0,29.1,0,-4160,-88,-20
1773578207.453089,22.0,29.1,1,-4152,-104,-36
1773578207.4736516,22.0,29.1,1,-4152,-104,-36
1773578207.494251,22.0,29.1,1,-4152,-104,-36
1773578207.514612,22.0,29.1,0,-4204,-64,92
1773578207.5350163,22.0,29.1,0,-4204,-64,92
1773578207.5555854,22.0,29.1,0,-4156,-88,-20
1773578207.576187,22.0,29.1,0,-4156,-88,-20
1773578207.5966961,22.0,29.1,0,-4156,-88,-20
1773578207.6174438,22.0,29.1,0,-4176,-124,-72
1773578207.6381512,22.0,29.1,0,-4176,-124,-72
1773578207.6584704,22.0,29.1,1,-4168,-136,36
1773578207.6790917,22.0,29.1,1,-4168,-136,36
1773578207.6999319,22.0,29.1,1,-4168,-136,36
1773578207.7204106,22.0,29.1,0,-4208,-56,-12
1773578207.74127,22.0,29.1,0,-4208,-56,-12
1773578207.7617834,22.0,29.1,1,-4068,-216,12
1773578207.7824526,22.0,29.1,1,-4068,-216,12
1773578207.8029492,22.0,29.1,1,-4068,-216,12
1773578207.8237262,22.0,29.1,1,-4068,-216,12
1773578207.8443952,22.0,29.1,0,-4184,-144,56
1773578207.8648627,22.0,29.1,0,-4184,-144,56
1773578207.8869722,22.0,29.1,0,-4184,-144,56
1773578207.9074082,22.0,29.1,1,-4168,-104,-76
1773578207.9280365,22.0,29.1,1,-4168,-104,-76
1773578207.9484694,22.0,29.1,1,-4188,-100,-4
1773578207.9692712,22.0,29.1,1,-4188,-100,-4
1773578207.9900367,22.0,29.1,1,-4188,-100,-4
1773578208.0106037,22.0,29.1,0,-4204,-88,80
1773578208.030921,22.0,29.1,0,-4204,-88,80
1773578208.0528257,22.0,29.1,1,-4112,-196,-92
1773578208.0733292,22.0,29.1,1,-4112,-196,-92
1773578208.0939019,22.0,29.1,1,-4112,-196,-92
1773578208.116922,22.0,29.1,0,-4152,-92,-8
1773578208.1393669,22.0,29.1,0,-4152,-92,-8
1773578208.159784,22.0,29.1,1,-4204,-56,68
1773578208.180177,22.0,29.1,1,-4204,-56,68
1773578208.2012317,22.0,29.1,1,-4204,-56,68
1773578208.222362,22.0,29.1,0,-4152,-140,-48
1773578208.2428658,22.0,29.1,0,-4152,-140,-48
1773578208.2631857,22.0,29.1,0,-4152,-140,-48
1773578208.2846866,22.0,29.1,1,-4116,-172,-24
1773578208.3058226,22.0,29.1,1,-4116,-172,-24
1773578208.3263903,22.0,29.1,0,-4208,-44,48
1773578208.3468695,22.0,29.1,0,-4208,-44,48
1773578208.3672912,22.0,29.1,0,-4208,-44,48
1773578208.3880699,22.0,29.1,1,-4212,-152,-12
1773578208.4086685,22.0,29.1,1,-4212,-152,-12
1773578208.4293828,22.0,29.1,0,-4140,-108,-4
1773578208.4508202,22.0,29.1,0,-4140,-108,-4
1773578208.4716442,22.0,29.1,0,-4140,-108,-4
1773578208.492166,22.0,29.1,1,-4184,-64,24
1773578208.5137208,22.0,29.1,1,-4184,-64,24
1773578208.5344982,22.0,29.1,0,-4216,-108,64
1773578208.5550811,22.0,29.1,0,-4216,-108,64
1773578208.5754683,22.0,29.1,0,-4216,-108,64
1773578208.5960038,22.0,29.1,1,-4116,-160,-56
1773578208.6167436,22.0,29.1,1,-4116,-160,-56
1773578208.637227,22.0,29.1,0,-4188,-64,0
1773578208.6579247,22.0,29.1,0,-4188,-64,0
1773578208.6784606,22.0,29.1,0,-4188,-64,0
1773578208.6988103,22.0,29.1,1,-4240,-84,36
1773578208.7201815,22.0,29.1,1,-4240,-84,36
1773578208.740904,22.0,29.1,1,-4240,-84,36
1773578208.7615345,22.0,29.1,0,-4116,-72,-52
1773578208.782077,22.0,29.1,0,-4116,-72,-52
1773578208.8027234,22.0,29.1,1,-4152,-60,-24
1773578208.8233213,22.0,29.1,1,-4152,-60,-24
1773578208.8436465,22.0,29.1,1,-4152,-60,-24
1773578208.864156,22.0,29.1,0,-4188,-128,32
1773578208.8848493,22.0,29.1,0,-4188,-128,32
1773578208.905392,22.0,29.1,1,-4184,-136,32
1773578208.9260218,22.0,29.1,1,-4184,-136,32
1773578208.946342,22.0,29.1,1,-4184,-136,32
1773578208.9669924,22.0,29.1,0,-4120,-144,-60
1773578208.9875376,22.0,29.1,0,-4120,-144,-60
1773578209.0079565,22.0,29.1,1,-4224,-68,-24
1773578209.0285647,22.0,29.1,1,-4224,-68,-24
1773578209.0489624,22.0,29.1,1,-4224,-68,-24
1773578209.0697339,22.0,29.1,0,-4180,-148,52
1773578209.0899966,22.0,29.1,0,-4180,-148,52
1773578209.1104512,22.0,29.1,0,-4180,-148,52
1773578209.131222,22.0,29.1,0,-4132,-148,-36
1773578209.1519985,22.0,29.1,0,-4132,-148,-36
1773578209.1724484,22.0,29.1,1,-4132,-144,-28
1773578209.1941185,22.0,29.1,1,-4132,-144,-28
1773578209.2146926,22.0,29.1,1,-4132,-144,-28
1773578209.2352588,22.0,29.1,0,-4228,-92,100
1773578209.2560396,22.0,29.1,0,-4228,-92,100
1773578209.2767766,22.0,29.1,0,-4108,-164,-16
1773578209.2973137,22.0,29.1,0,-4108,-164,-16
1773578209.3181665,22.0,29.1,0,-4108,-164,-16
1773578209.3394542,22.0,29.1,1,-4132,-84,-88
1773578209.3601367,22.0,29.1,1,-4132,-84,-88
1773578209.3807163,22.0,29.1,1,-4212,-144,20
1773578209.4015162,22.0,29.1,1,-4212,-144,20
1773578209.4223237,22.0,29.1,1,-4212,-144,20
1773578209.4430492,22.0,29.1,1,-4296,-164,100
1773578209.464106,22.0,29.1,1,-4296,-164,100
1773578209.4844234,22.0,29.1,1,-4128,-56,-64
1773578209.5047483,22.0,29.1,1,-4128,-56,-64
1773578209.5253177,22.0,29.1,1,-4128,-56,-64
1773578209.5458908,22.0,29.1,0,-4184,-84,12
1773578209.566638,22.0,29.1,0,-4184,-84,12
1773578209.5871468,22.0,29.1,0,-4184,-84,12
1773578209.608277,22.0,29.1,0,-4208,-132,36
1773578209.6288278,22.0,29.1,0,-4208,-132,36
1773578209.6492279,22.0,29.1,1,-4160,-104,-24
1773578209.6695254,22.0,29.1,1,-4160,-104,-24
1773578209.6899443,22.0,29.1,1,-4160,-104,-24
1773578209.7108192,22.0,29.1,1,-4184,-120,-60
1773578209.7312512,22.0,29.1,1,-4184,-120,-60
1773578209.7521317,22.0,29.1,0,-4200,-68,68
1773578209.7725997,22.0,29.1,0,-4200,-68,68
1773578209.7931702,22.0,29.1,0,-4200,-68,68
1773578209.8136954,22.0,29.1,1,-4192,-104,24
1773578209.8340485,22.0,29.1,1,-4192,-104,24
1773578209.854591,22.0,29.1,1,-4192,-104,24
1773578209.8748884,22.0,29.1,1,-4192,-104,24
1773578209.8971207,22.0,29.0,0,-4200,-68,84
1773578209.9175744,22.0,29.0,0,-4200,-68,84
1773578209.9383345,22.0,29.0,1,-4120,-112,-36
1773578209.958727,22.0,29.0,1,-4120,-112,-36
1773578209.9795027,22.0,29.0,1,-4120,-112,-36
1773578210.0002272,22.0,29.0,1,-4120,-148,-52
1773578210.0206275,22.0,29.0,1,-4120,-148,-52
1773578210.0412002,22.0,29.0,0,-4212,-92,64
1773578210.0618699,22.0,29.0,0,-4212,-92,64
1773578210.0821629,22.0,29.0,0,-4212,-92,64
1773578210.1025028,22.0,29.0,0,-4176,-140,0
1773578210.123476,22.0,29.0,0,-4176,-140,0
1773578210.1437714,22.0,29.0,0,-4176,-140,0
1773578210.1645055,22.0,29.0,1,-4124,-156,-56
1773578210.1852653,22.0,29.0,1,-4124,-156,-56
1773578210.2062423,22.0,29.0,1,-4232,-60,-36
1773578210.2268784,22.0,29.0,1,-4232,-60,-36
1773578210.2472084,22.0,29.0,1,-4232,-60,-36
1773578210.2701828,22.0,29.0,0,-4196,-132,28
1773578210.290572,22.0,29.0,0,-4196,-132,28
1773578210.3110228,22.0,29.0,1,-4132,-72,-4
1773578210.3315234,22.0,29.0,1,-4132,-72,-4
1773578210.3519444,22.0,29.0,1,-4132,-72,-4
1773578210.372695,22.0,29.0,1,-4184,-100,28
1773578210.3932326,22.0,29.0,1,-4184,-100,28
1773578210.4136076,22.0,29.0,0,-4204,-76,36
1773578210.4343061,22.0,29.0,0,-4204,-76,36
1773578210.4550045,22.0,29.0,0,-4204,-76,36
1773578210.4756334,22.0,29.0,1,-4168,-176,-8
1773578210.4966307,22.0,29.0,1,-4168,-176,-8
1773578210.5172987,22.0,29.0,1,-4196,-108,-40
1773578210.537599,22.0,29.0,1,-4196,-108,-40
1773578210.557959,22.0,29.0,1,-4196,-108,-40
1773578210.578372,22.0,29.0,0,-4188,-144,64
1773578210.5987985,22.0,29.0,0,-4188,-144,64
1773578210.6194303,22.0,29.0,0,-4188,-144,64
1773578210.6401775,22.0,29.0,1,-4136,-104,-4
1773578210.6607714,22.0,29.0,1,-4136,-104,-4
1773578210.6813471,22.0,29.0,1,-4164,-80,-44
1773578210.7020018,22.0,29.0,1,-4164,-80,-44
1773578210.7225022,22.0,29.0,1,-4164,-80,-44
1773578210.7432294,22.0,29.0,1,-4168,-72,4
1773578210.7636483,22.0,29.0,1,-4168,-72,4
1773578210.7838387,22.0,29.0,0,-4176,-68,60
1773578210.8043108,22.0,29.0,0,-4176,-68,60
1773578210.8248498,22.0,29.0,0,-4176,-68,60
1773578210.8455348,22.0,29.0,0,-4140,-152,-80
1773578210.8661077,22.0,29.0,0,-4140,-152,-80
1773578210.8866706,22.0,29.0,0,-4140,-152,-80
1773578210.9072254,22.0,29.0,1,-4156,-128,-12
1773578210.9277854,22.0,29.0,1,-4156,-128,-12
1773578210.9482644,22.0,29.0,1,-4196,-88,40
1773578210.9690053,22.0,29.0,1,-4196,-88,40
1773578210.9896054,22.0,29.0,1,-4196,-88,40
1773578211.0107732,22.0,29.0,0,-4168,-132,-36
1773578211.0315146,22.0,29.0,0,-4168,-132,-36
1773578211.0531528,22.0,29.0,1,-4140,-96,-92
1773578211.0734925,22.0,29.0,1,-4140,-96,-92
1773578211.093997,22.0,29.0,1,-4140,-96,-92
1773578211.1144147,22.0,29.0,0,-4212,-88,76
1773578211.1416092,22.0,29.0,0,-4212,-88,76
1773578211.164487,22.0,29.0,0,-4188,-88,52
1773578211.187988,22.0,29.0,0,-4188,-88,52
1773578211.2084768,22.0,29.0,1,-4140,-136,-32
1773578211.229121,22.0,29.0,1,-4140,-136,-32
1773578211.2496574,22.0,29.0,1,-4140,-136,-32
1773578211.2700446,22.0,29.0,1,-4144,-72,12
1773578211.2904274,22.0,29.0,1,-4144,-72,12
1773578211.3110359,22.0,29.0,1,-4192,-104,80
1773578211.3316557,22.0,29.0,1,-4192,-104,80
1773578211.35319,22.0,29.0,1,-4192,-104,80
1773578211.3733697,22.0,29.0,1,-4208,0,-40
1773578211.3937538,22.0,29.0,1,-4208,0,-40
1773578211.414456,22.0,29.0,1,-4208,0,-40
1773578211.4351852,22.0,29.0,1,-4140,-92,-48
1773578211.456198,22.0,29.0,1,-4140,-92,-48
1773578211.476861,22.0,29.0,0,-4208,-100,36
1773578211.497746,22.0,29.0,0,-4208,-100,36
1773578211.5183122,22.0,29.0,0,-4208,-100,36
1773578211.5386658,22.0,29.0,0,-4112,-124,12
1773578211.5592215,22.0,29.0,0,-4112,-124,12
1773578211.5797753,22.0,29.0,1,-4132,-140,-20
1773578211.6000805,22.0,29.0,1,-4132,-140,-20
1773578211.6204815,22.0,29.0,1,-4132,-140,-20
1773578211.6411462,22.0,29.0,1,-4232,-36,-4
1773578211.6616714,22.0,29.0,1,-4232,-36,-4
1773578211.6817968,22.0,29.0,1,-4232,-36,-4
1773578211.7022464,22.0,29.0,0,-4208,-108,84
1773578211.7230525,22.0,29.0,0,-4208,-108,84
1773578211.743542,22.0,29.0,1,-4116,-268,-112
1773578211.7641113,22.0,29.0,1,-4116,-268,-112
1773578211.7847016,22.0,29.0,1,-4116,-268,-112
1773578211.8054292,22.0,29.0,0,-4196,-108,-20
1773578211.825827,22.0,29.0,0,-4196,-108,-20
1773578211.846281,22.0,29.0,1,-4220,-32,80
1773578211.866979,22.0,29.0,1,-4220,-32,80
1773578211.8873355,22.0,29.0,1,-4220,-32,80
1773578211.9077556,22.0,29.0,1,-4220,-32,80
1773578211.928881,22.0,28.9,0,-4148,-188,56
1773578211.949772,22.0,28.9,0,-4148,-188,56
1773578211.9702964,22.0,28.9,0,-4148,-188,56
1773578211.9906619,22.0,28.9,0,-4204,-24,32
1773578212.0112321,22.0,28.9,0,-4204,-24,32
1773578212.0317185,22.0,28.9,1,-4152,-60,-20
1773578212.0527925,22.0,28.9,1,-4152,-60,-20
1773578212.073615,22.0,28.9,1,-4152,-60,-20
1773578212.0942912,22.0,28.9,0,-4176,-100,-12
1773578212.1148207,22.0,28.9,0,-4176,-100,-12
1773578212.1363869,22.0,28.9,0,-4212,-100,68
1773578212.1570325,22.0,28.9,0,-4212,-100,68
1773578212.1782374,22.0,28.9,0,-4212,-100,68
1773578212.1993957,22.0,28.9,1,-4152,-192,-20
1773578212.219878,22.0,28.9,1,-4152,-192,-20
1773578212.241299,22.0,28.9,1,-4132,-80,-24
1773578212.2614465,22.0,28.9,1,-4132,-80,-24
1773578212.2821739,22.0,28.9,1,-4132,-80,-24
1773578212.3024235,22.0,28.9,0,-4204,-128,56
1773578212.3229008,22.0,28.9,0,-4204,-128,56
1773578212.3433528,22.0,28.9,0,-4184,-76,24
1773578212.363699,22.0,28.9,0,-4184,-76,24
1773578212.3842762,22.0,28.9,0,-4184,-76,24
1773578212.4048502,22.0,28.9,1,-4152,-116,-52
1773578212.4254458,22.0,28.9,1,-4152,-116,-52
1773578212.44593,22.0,28.9,1,-4152,-116,-52
1773578212.466355,22.0,28.9,1,-4168,-96,-8
1773578212.4869003,22.0,28.9,1,-4168,-96,-8
1773578212.5083597,22.0,28.9,1,-4184,-152,96
1773578212.5289874,22.0,28.9,1,-4184,-152,96
1773578212.5493164,22.0,28.9,1,-4184,-152,96
1773578212.5695255,22.0,28.9,0,-4148,-144,-60
1773578212.5899563,22.0,28.9,0,-4148,-144,-60
1773578212.610443,22.0,28.9,1,-4176,-36,-36
1773578212.6306949,22.0,28.9,1,-4176,-36,-36
1773578212.6511576,22.0,28.9,1,-4176,-36,-36
1773578212.6714993,22.0,28.9,0,-4208,-164,48
1773578212.692372,22.0,28.9,0,-4208,-164,48
1773578212.7130525,22.0,28.9,0,-4208,-164,48
1773578212.7336466,22.0,28.9,0,-4156,-144,-32
1773578212.753932,22.0,28.9,0,-4156,-144,-32
1773578212.7743042,22.0,28.9,1,-4140,-128,-20
1773578212.794985,22.0,28.9,1,-4140,-128,-20
1773578212.8156338,22.0,28.9,1,-4140,-128,-20
1773578212.836376,22.0,28.9,0,-4264,128,24
1773578212.8571682,22.0,28.9,0,-4264,128,24
1773578212.8776958,22.0,28.9,0,-4176,-240,4
1773578212.8984988,22.0,28.9,0,-4176,-240,4
1773578212.9201472,22.0,28.9,0,-4176,-240,4
1773578212.9406955,22.0,28.9,0,-4220,-56,32
1773578212.9609914,22.0,28.9,0,-4220,-56,32
1773578212.9817064,22.0,28.9,1,-4204,-176,16
1773578213.0019653,22.0,28.9,1,-4204,-176,16
1773578213.0228682,22.0,28.9,1,-4204,-176,16
1773578213.0435038,22.0,28.9,0,-4188,-68,-12
1773578213.064163,22.0,28.9,0,-4188,-68,-12
1773578213.0857544,22.0,28.9,0,-4188,-68,-12
1773578213.1064456,22.0,28.9,1,-4116,-116,-32
1773578213.1269534,22.0,28.9,1,-4116,-116,-32
1773578213.1472638,22.0,28.9,1,-4156,-112,-60
1773578213.1676004,22.0,28.9,1,-4156,-112,-60
1773578213.1896906,22.0,28.9,1,-4156,-112,-60
1773578213.2102206,22.0,28.9,0,-4224,16,44
1773578213.2308068,22.0,28.9,0,-4224,16,44
1773578213.2517753,22.0,28.9,0,-4196,-232,12
1773578213.272353,22.0,28.9,0,-4196,-232,12
1773578213.2930028,22.0,28.9,0,-4196,-232,12
1773578213.313744,22.0,28.9,1,-4204,-120,-24
1773578213.3342464,22.0,28.9,1,-4204,-120,-24
1773578213.354902,22.0,28.9,0,-4192,-184,56
1773578213.375506,22.0,28.9,0,-4192,-184,56
1773578213.3958821,22.0,28.9,0,-4192,-184,56
1773578213.4165614,22.0,28.9,0,-4108,-124,40
1773578213.4372346,22.0,28.9,0,-4108,-124,40
1773578213.457933,22.0,28.9,1,-4160,-8,-72
1773578213.4789026,22.0,28.9,1,-4160,-8,-72
1773578213.4995937,22.0,28.9,1,-4160,-8,-72
1773578213.5201666,22.0,28.9,1,-4180,-156,-28
1773578213.5407217,22.0,28.9,1,-4180,-156,-28
1773578213.5610938,22.0,28.9,1,-4180,-156,-28
1773578213.5814805,22.0,28.9,0,-4196,-48,88
1773578213.6018326,22.0,28.9,0,-4196,-48,88
1773578213.622306,22.0,28.9,0,-4172,-92,-56
1773578213.6428175,22.0,28.9,0,-4172,-92,-56
1773578213.6630843,22.0,28.9,0,-4172,-92,-56
1773578213.6834996,22.0,28.9,1,-4128,-112,-52
1773578213.7039692,22.0,28.9,1,-4128,-112,-52
