timestamp,temp,hum,mic,ax,ay,az
1773578753.872747,21.4,31.2,0,-4184,-104,72
1773578753.8937206,21.4,31.2,0,-4184,-104,72
1773578753.9144118,21.4,31.2,0,-4192,-116,80
1773578753.9353828,21.4,31.2,0,-4192,-116,80
1773578753.9557881,21.4,31.2,0,-4184,-132,44
1773578753.976898,21.4,31.2,0,-4184,-132,44
1773578753.9976764,21.4,31.2,0,-4184,-132,44
1773578754.018309,21.4,31.2,0,-4184,-112,64
1773578754.0390627,21.4,31.2,0,-4184,-112,64
1773578754.0595727,21.4,31.2,0,-4180,-144,44
1773578754.0800984,21.4,31.2,0,-4180,-144,44
1773578754.1011221,21.4,31.2,0,-4180,-144,44
1773578754.1215663,21.4,31.2,0,-4164,-112,36
1773578754.14305,21.4,31.2,0,-4164,-112,36
1773578754.1633604,21.4,31.2,0,-4172,-124,76
1773578754.183998,21.4,31.2,0,-4172,-124,76
1773578754.204411,21.4,31.2,0,-4172,-124,76
1773578754.2250938,21.4,31.2,0,-4192,-92,24
1773578754.245627,21.4,31.2,0,-4192,-92,24
1773578754.2660053,21.4,31.2,0,-4184,-100,48
1773578754.2863522,21.4,31.2,0,-4184,-100,48
1773578754.306945,21.4,31.2,0,-4184,-100,48
1773578754.3278077,21.4,31.2,0,-4188,-140,60
1773578754.3483055,21.4,31.2,0,-4188,-140,60
1773578754.3687725,21.4,31.2,0,-4188,-140,60
1773578754.3891098,21.4,31.2,0,-4172,-100,64
1773578754.409363,21.4,31.2,0,-4172,-100,64
1773578754.4298327,21.4,31.2,0,-4184,-132,52
1773578754.4503577,21.4,31.2,0,-4184,-132,52
1773578754.4708989,21.4,31.2,0,-4184,-132,52
1773578754.491207,21.4,31.2,0,-4188,-84,56
1773578754.5118775,21.4,31.2,0,-4188,-84,56
1773578754.5325608,21.4,31.2,0,-4152,-112,60
1773578754.5530522,21.4,31.2,0,-4152,-112,60
1773578754.573616,21.4,31.2,0,-4152,-112,60
1773578754.594246,21.4,31.2,0,-4168,-108,64
1773578754.6146822,21.4,31.2,0,-4168,-108,64
1773578754.6350477,21.4,31.2,0,-4168,-108,64
1773578754.655221,21.4,31.2,0,-4180,-128,80
1773578754.6757648,21.4,31.2,0,-4180,-128,80
1773578754.6963196,21.4,31.2,0,-4164,-72,12
1773578754.7168136,21.4,31.2,0,-4164,-72,12
1773578754.7374527,21.4,31.2,0,-4164,-72,12
1773578754.7581024,21.4,31.2,0,-4204,-140,76
1773578754.7787213,21.4,31.2,0,-4204,-140,76
1773578754.7990751,21.4,31.2,0,-4164,-136,12
1773578754.8204846,21.4,31.2,0,-4164,-136,12
1773578754.8447907,21.4,31.2,0,-4164,-136,12
1773578754.8654053,21.4,31.2,0,-4148,-136,16
1773578754.8864162,21.4,31.2,0,-4148,-136,16
1773578754.9069374,21.4,31.2,0,-4176,-116,20
1773578754.9273944,21.4,31.2,0,-4176,-116,20
1773578754.9477592,21.4,31.2,0,-4176,-116,20
1773578754.9685333,21.4,31.2,0,-4176,-120,100
1773578754.9889555,21.4,31.2,0,-4176,-120,100
1773578755.0097163,21.4,31.2,0,-4176,-120,100
1773578755.0300653,21.4,31.2,0,-4208,-124,64
1773578755.0508375,21.4,31.2,0,-4208,-124,64
1773578755.0714655,21.4,31.2,0,-4172,-76,60
1773578755.0918648,21.4,31.2,0,-4172,-76,60
1773578755.112319,21.4,31.2,0,-4172,-76,60
1773578755.1325643,21.4,31.2,0,-4124,-148,84
1773578755.1531928,21.4,31.2,0,-4124,-148,84
1773578755.1738062,21.4,31.2,0,-4168,-132,64
1773578755.194196,21.4,31.2,0,-4168,-132,64
1773578755.2149434,21.4,31.2,0,-4168,-132,64
1773578755.235407,21.4,31.2,0,-4296,-160,12
1773578755.2558897,21.4,31.2,0,-4296,-160,12
1773578755.2763507,21.4,31.2,0,-4196,-64,-16
1773578755.2969875,21.4,31.2,0,-4196,-64,-16
1773578755.3176773,21.4,31.2,0,-4196,-64,-16
1773578755.33849,21.4,31.2,0,-4112,-148,44
1773578755.3588328,21.4,31.2,0,-4112,-148,44
1773578755.379274,21.4,31.2,0,-4160,-132,180
1773578755.400034,21.4,31.2,0,-4160,-132,180
1773578755.4206483,21.4,31.2,0,-4160,-132,180
1773578755.4410362,21.4,31.2,0,-4300,-56,24
1773578755.4612315,21.4,31.2,0,-4300,-56,24
1773578755.4816074,21.4,31.2,0,-4300,-56,24
1773578755.5022109,21.4,31.2,0,-4200,-96,48
1773578755.5228102,21.4,31.2,0,-4200,-96,48
1773578755.543346,21.4,31.2,0,-4200,-96,48
1773578755.5637274,21.4,31.1,0,-4140,-80,136
1773578755.5843017,21.4,31.1,0,-4140,-80,136
1773578755.604743,21.4,31.1,0,-4140,-80,136
1773578755.6251915,21.4,31.1,0,-4164,-80,124
1773578755.6456215,21.4,31.1,0,-4164,-80,124
1773578755.6658623,21.4,31.1,0,-4164,-80,124
1773578755.686252,21.4,31.1,0,-4040,-84,-16
1773578755.7068048,21.4,31.1,0,-4040,-84,-16
1773578755.7274406,21.4,31.1,0,-4264,-176,136
1773578755.7477806,21.4,31.1,0,-4264,-176,136
1773578755.7687302,21.4,31.1,0,-4264,-176,136
1773578755.7890942,21.4,31.1,0,-4188,-44,56
1773578755.8097584,21.4,31.1,0,-4188,-44,56
1773578755.8300343,21.4,31.1,0,-4240,-212,136
1773578755.8504379,21.4,31.1,0,-4240,-212,136
1773578755.8708699,21.4,31.1,0,-4240,-212,136
1773578755.8912973,21.4,31.1,0,-4156,-8,-60
1773578755.9122431,21.4,31.1,0,-4156,-8,-60
1773578755.9339147,21.4,31.1,0,-4156,-8,-60
1773578755.9547572,21.4,31.1,0,-4204,-192,336
1773578755.9774418,21.4,31.1,0,-4204,-192,336
1773578755.998043,21.4,31.1,0,-4056,-28,-28
1773578756.0184836,21.4,31.1,0,-4056,-28,-28
1773578756.0390384,21.4,31.1,0,-4056,-28,-28
1773578756.0595741,21.4,31.1,0,-4156,-212,80
1773578756.0805886,21.4,31.1,0,-4156,-212,80
1773578756.1010134,21.4,31.1,0,-4000,-12,56
1773578756.1215973,21.4,31.1,0,-4000,-12,56
1773578756.1420283,21.4,31.1,0,-4000,-12,56
1773578756.1623545,21.4,31.1,0,-4288,-216,120
1773578756.1828878,21.4,31.1,0,-4288,-216,120
1773578756.2034805,21.4,31.1,0,-4192,-20,64
1773578756.223762,21.4,31.1,0,-4192,-20,64
1773578756.2440352,21.4,31.1,0,-4192,-20,64
1773578756.2646797,21.4,31.1,0,-4308,-156,-8
1773578756.2859612,21.4,31.1,0,-4308,-156,-8
1773578756.3064744,21.4,31.1,0,-4076,-96,32
1773578756.327192,21.4,31.1,0,-4076,-96,32
1773578756.347501,21.4,31.1,0,-4076,-96,32
1773578756.3687193,21.4,31.1,0,-4020,-100,16
1773578756.3894994,21.4,31.1,0,-4020,-100,16
1773578756.4103096,21.4,31.1,0,-4020,-100,16
1773578756.4310403,21.4,31.1,0,-4264,-160,72
1773578756.4521985,21.4,31.1,0,-4264,-160,72
1773578756.4729156,21.4,31.1,0,-4188,-156,172
1773578756.4936435,21.4,31.1,0,-4188,-156,172
1773578756.5140052,21.4,31.1,0,-4188,-156,172
1773578756.5379026,21.4,31.1,0,-4176,-172,-44
1773578756.5584812,21.4,31.1,0,-4176,-172,-44
1773578756.5787601,21.4,31.1,0,-4128,-152,84
1773578756.5990133,21.4,31.1,0,-4128,-152,84
1773578756.6198013,21.4,31.1,0,-4128,-152,84
1773578756.6404731,21.4,31.1,0,-4060,-84,176
1773578756.6607342,21.4,31.1,0,-4060,-84,176
1773578756.6812947,21.4,31.1,0,-4204,-100,64
1773578756.7028024,21.4,31.1,0,-4204,-100,64
1773578756.7231352,21.4,31.1,0,-4204,-100,64
1773578756.7436502,21.4,31.1,0,-4208,-92,-124
1773578756.763942,21.4,31.1,0,-4208,-92,-124
1773578756.7851048,21.4,31.1,0,-4164,-200,188
1773578756.805769,21.4,31.1,0,-4164,-200,188
1773578756.8260226,21.4,31.1,0,-4164,-200,188
1773578756.8465395,21.4,31.1,0,-4144,-68,152
1773578756.8672092,21.4,31.1,0,-4144,-68,152
1773578756.887836,21.4,31.1,0,-4144,-68,152
1773578756.9082048,21.4,31.1,0,-4264,-88,-68
1773578756.9285424,21.4,31.1,0,-4264,-88,-68
1773578756.949435,21.4,31.1,0,-4140,-92,0
1773578756.9698355,21.4,31.1,0,-4140,-92,0
1773578756.9906275,21.4,31.1,0,-4140,-92,0
1773578757.0113635,21.4,31.1,0,-4176,-192,288
1773578757.0317764,21.4,31.1,0,-4176,-192,288
1773578757.0521407,21.4,31.1,0,-4160,-176,16
1773578757.0724435,21.4,31.1,0,-4160,-176,16
1773578757.092826,21.4,31.1,0,-4160,-176,16
1773578757.1136413,21.4,31.1,0,-4080,-52,-24
1773578757.1340933,21.4,31.1,0,-4080,-52,-24
1773578757.154337,21.4,31.1,0,-4080,-52,-24
1773578757.175039,21.4,31.1,0,-4236,-168,76
1773578757.1958559,21.4,31.1,0,-4236,-168,76
1773578757.2160888,21.4,31.1,0,-4204,-124,56
1773578757.2367902,21.4,31.1,0,-4204,-124,56
1773578757.2572474,21.4,31.1,0,-4204,-124,56
1773578757.2776566,21.4,31.1,0,-4128,-132,136
1773578757.298312,21.4,31.1,0,-4128,-132,136
1773578757.3191524,21.4,31.1,0,-4168,-124,176
1773578757.339468,21.4,31.1,0,-4168,-124,176
1773578757.359913,21.4,31.1,0,-4168,-124,176
1773578757.3805885,21.4,31.1,0,-4244,-100,-56
1773578757.4009504,21.4,31.1,0,-4244,-100,-56
1773578757.4222267,21.4,31.1,0,-4180,-116,8
1773578757.442719,21.4,31.1,0,-4180,-116,8
1773578757.4630108,21.4,31.1,0,-4180,-116,8
1773578757.483171,21.4,31.1,0,-4192,-228,84
1773578757.5035295,21.4,31.1,0,-4192,-228,84
1773578757.523753,21.4,31.1,0,-4192,-228,84
1773578757.5446327,21.4,31.1,0,-4160,-96,76
1773578757.5649157,21.4,31.1,0,-4160,-96,76
1773578757.5859568,21.4,31.1,0,-4160,-96,76
1773578757.6064444,21.4,31.0,0,-4212,-84,-56
1773578757.6266892,21.4,31.0,0,-4212,-84,-56
1773578757.647145,21.4,31.0,0,-4212,-84,-56
1773578757.668596,21.4,31.0,0,-4156,-104,12
1773578757.6891022,21.4,31.0,0,-4156,-104,12
1773578757.7095382,21.4,31.0,0,-4156,-104,12
1773578757.730134,21.4,31.0,0,-4212,-148,248
1773578757.750763,21.4,31.0,0,-4212,-148,248
1773578757.7710466,21.4,31.0,0,-4172,-40,40
1773578757.7916512,21.4,31.0,0,-4172,-40,40
1773578757.8120506,21.4,31.0,0,-4172,-40,40
1773578757.8325202,21.4,31.0,0,-4052,-152,132
1773578757.8530796,21.4,31.0,0,-4052,-152,132
1773578757.8735576,21.4,31.0,0,-4240,-144,60
1773578757.8941283,21.4,31.0,0,-4240,-144,60
1773578757.9146748,21.4,31.0,0,-4240,-144,60
1773578757.9351315,21.4,31.0,0,-4172,-72,24
1773578757.9556272,21.4,31.0,0,-4172,-72,24
1773578757.9761677,21.4,31.0,0,-4172,-72,24
1773578757.9969344,21.4,31.0,0,-4128,-96,116
1773578758.017617,21.4,31.0,0,-4128,-96,116
1773578758.03799,21.4,31.0,0,-4196,-152,196
1773578758.058627,21.4,31.0,0,-4196,-152,196
1773578758.078977,21.4,31.0,0,-4196,-152,196
1773578758.0995696,21.4,31.0,0,-4168,-104,-56
1773578758.120183,21.4,31.0,0,-4168,-104,-56
1773578758.1405013,21.4,31.0,0,-4168,-164,124
1773578758.1609075,21.4,31.0,0,-4168,-164,124
1773578758.1813846,21.4,31.0,0,-4168,-164,124
1773578758.2020898,21.4,31.0,0,-4228,-144,128
1773578758.222496,21.4,31.0,0,-4228,-144,128
1773578758.2430732,21.4,31.0,0,-4144,-52,4
1773578758.2633111,21.4,31.0,0,-4144,-52,4
1773578758.2839487,21.4,31.0,0,-4144,-52,4
1773578758.3041422,21.4,31.0,0,-4056,-108,84
1773578758.3247824,21.4,31.0,0,-4056,-108,84
1773578758.3450644,21.4,31.0,0,-4056,-108,84
1773578758.365405,21.4,31.0,0,-4192,-52,16
1773578758.3858054,21.4,31.0,0,-4192,-52,16
1773578758.4064627,21.4,31.0,0,-4220,-120,-88
1773578758.4268644,21.4,31.0,0,-4220,-120,-88
1773578758.4477804,21.4,31.0,0,-4220,-120,-88
1773578758.4690337,21.4,31.0,0,-4136,-112,36
1773578758.4898956,21.4,31.0,0,-4136,-112,36
1773578758.5102983,21.4,31.0,0,-4204,-128,84
1773578758.5306876,21.4,31.0,0,-4204,-128,84
1773578758.551016,21.4,31.0,0,-4204,-128,84
1773578758.571367,21.4,31.0,0,-4108,-52,100
1773578758.592161,21.4,31.0,0,-4108,-52,100
1773578758.6130526,21.4,31.0,0,-4108,-52,100
1773578758.6338117,21.4,31.0,0,-4188,-188,200
1773578758.6543946,21.4,31.0,0,-4188,-188,200
1773578758.6748085,21.4,31.0,0,-4268,-140,-16
1773578758.6951463,21.4,31.0,0,-4268,-140,-16
1773578758.7158117,21.4,31.0,0,-4268,-140,-16
1773578758.7365444,21.4,31.0,0,-4172,-104,-20
1773578758.757131,21.4,31.0,0,-4172,-104,-20
1773578758.7778037,21.4,31.0,0,-4044,-96,108
1773578758.7980769,21.4,31.0,0,-4044,-96,108
1773578758.8185568,21.4,31.0,0,-4044,-96,108
1773578758.8392956,21.4,31.0,0,-4212,-116,144
1773578758.8600073,21.4,31.0,0,-4212,-116,144
1773578758.8804858,21.4,31.0,0,-4116,-48,-248
1773578758.9011374,21.4,31.0,0,-4116,-48,-248
1773578758.922106,21.4,31.0,0,-4116,-48,-248
1773578758.9426816,21.4,31.0,0,-4216,-192,60
1773578758.9633238,21.4,31.0,0,-4216,-192,60
1773578758.984083,21.4,31.0,0,-4216,-192,60
1773578759.004637,21.4,31.0,0,-4204,-64,4
1773578759.0250661,21.4,31.0,0,-4204,-64,4
1773578759.045351,21.4,31.0,0,-4116,-76,180
1773578759.0661936,21.4,31.0,0,-4116,-76,180
1773578759.0868895,21.4,31.0,0,-4116,-76,180
1773578759.1072106,21.4,31.0,0,-4168,-136,96
1773578759.127727,21.4,31.0,0,-4168,-136,96
1773578759.148281,21.4,31.0,0,-4268,-108,-52
1773578759.1686137,21.4,31.0,0,-4268,-108,-52
1773578759.1892369,21.4,31.0,0,-4268,-108,-52
1773578759.2095833,21.4,31.0,0,-4172,-156,60
1773578759.2298632,21.4,31.0,0,-4172,-156,60
1773578759.252242,21.4,31.0,0,-4056,-128,136
1773578759.272942,21.4,31.0,0,-4056,-128,136
1773578759.2936063,21.4,31.0,0,-4056,-128,136
1773578759.3140197,21.4,31.0,0,-4200,-76,84
1773578759.334339,21.4,31.0,0,-4200,-76,84
1773578759.3550563,21.4,31.0,0,-4200,-76,84
1773578759.3755016,21.4,31.0,0,-4084,-60,-240
1773578759.3964388,21.4,31.0,0,-4084,-60,-240
1773578759.417209,21.4,31.0,0,-4220,-176,64
1773578759.4376466,21.4,31.0,0,-4220,-176,64
1773578759.4582295,21.4,31.0,0,-4220,-176,64
1773578759.4788024,21.4,31.0,0,-4176,-76,-40
1773578759.4991343,21.4,31.0,0,-4176,-76,-40
1773578759.5199344,21.4,31.0,0,-4140,-84,180
1773578759.5401943,21.4,31.0,0,-4140,-84,180
1773578759.5606532,21.4,31.0,0,-4140,-84,180
1773578759.5810921,21.4,31.0,0,-4184,-148,188
1773578759.6016057,21.4,31.0,0,-4184,-148,188
1773578759.6221988,21.4,31.0,0,-4184,-148,188
1773578759.642919,21.4,31.0,0,-4184,-148,188
1773578759.663167,21.4,31.0,0,-4188,-128,100
1773578759.6837246,21.4,31.0,0,-4188,-128,100
1773578759.7039437,21.4,31.0,0,-4216,-76,156
1773578759.724261,21.4,31.0,0,-4216,-76,156
1773578759.7446172,21.4,31.0,0,-4216,-76,156
1773578759.7653406,21.4,31.0,0,-4188,-76,12
1773578759.785668,21.4,31.0,0,-4188,-76,12
1773578759.8064342,21.4,31.0,0,-4124,-132,96
1773578759.827172,21.4,31.0,0,-4124,-132,96
1773578759.8478327,21.4,31.0,0,-4124,-132,96
1773578759.8690596,21.4,31.0,0,-4184,-148,248
1773578759.8895416,21.4,31.0,0,-4184,-148,248
1773578759.90987,21.4,31.0,0,-4184,-148,248
1773578759.930399,21.4,31.0,0,-4168,-36,12
1773578759.950613,21.4,31.0,0,-4168,-36,12
1773578759.970981,21.4,31.0,0,-4136,-176,-232
1773578759.9916427,21.4,31.0,0,-4136,-176,-232
1773578760.0170176,21.4,31.0,0,-4136,-176,-232
1773578760.0378397,21.4,31.0,0,-4256,-168,88
1773578760.0582285,21.4,31.0,0,-4256,-168,88
1773578760.0785604,21.4,31.0,0,-4184,-104,108
1773578760.0992634,21.4,31.0,0,-4184,-104,108
1773578760.1199903,21.4,31.0,0,-4184,-104,108
1773578760.1404862,21.4,31.0,0,-4140,-32,12
1773578760.1610477,21.4,31.0,0,-4140,-32,12
1773578760.1816156,21.4,31.0,0,-4184,-180,148
1773578760.2022333,21.4,31.0,0,-4184,-180,148
1773578760.2230296,21.4,31.0,0,-4184,-180,148
1773578760.2434764,21.4,31.0,0,-4176,-208,144
1773578760.2640376,21.4,31.0,0,-4176,-208,144
1773578760.284395,21.4,31.0,0,-4124,-24,36
1773578760.3048065,21.4,31.0,0,-4124,-24,36
1773578760.3253636,21.4,31.0,0,-4124,-24,36
1773578760.345709,21.4,31.0,0,-4148,-124,-264
1773578760.3662674,21.4,31.0,0,-4148,-124,-264
1773578760.3868499,21.4,31.0,0,-4148,-124,-264
1773578760.408568,21.4,31.0,0,-4176,-152,116
1773578760.4289792,21.4,31.0,0,-4176,-152,116
1773578760.4496686,21.4,31.0,0,-4172,-76,160
1773578760.470124,21.4,31.0,0,-4172,-76,160
1773578760.4905741,21.4,31.0,0,-4172,-76,160
1773578760.5111465,21.4,31.0,0,-4208,-84,-80
1773578760.531862,21.4,31.0,0,-4208,-84,-80
1773578760.5525844,21.4,31.0,0,-4156,-148,84
1773578760.573025,21.4,31.0,0,-4156,-148,84
1773578760.593784,21.4,31.0,0,-4156,-148,84
1773578760.6155407,21.4,31.0,0,-4016,-116,100
1773578760.6361897,21.4,31.0,0,-4016,-116,100
1773578760.656799,21.4,31.0,0,-4240,-96,108
1773578760.6775556,21.4,31.0,0,-4240,-96,108
1773578760.698149,21.4,31.0,0,-4240,-96,108
1773578760.7187297,21.4,31.0,0,-4232,-80,64
1773578760.7394273,21.4,31.0,0,-4232,-80,64
1773578760.7597406,21.4,31.0,0,-4232,-80,64
1773578760.7803202,21.4,31.0,0,-4072,-172,216
1773578760.801006,21.4,31.0,0,-4072,-172,216
1773578760.8226986,21.4,31.0,0,-4160,-128,148
1773578760.84314,21.4,31.0,0,-4160,-128,148
1773578760.8637247,21.4,31.0,0,-4160,-128,148
1773578760.8840945,21.4,31.0,0,-4272,-132,36
1773578760.9045708,21.4,31.0,0,-4272,-132,36
1773578760.9249425,21.4,31.0,0,-4132,-104,-108
1773578760.9455132,21.4,31.0,0,-4132,-104,-108
1773578760.965882,21.4,31.0,0,-4132,-104,-108
1773578760.9860141,21.4,31.0,0,-4152,-104,-272
1773578761.0063453,21.4,31.0,0,-4152,-104,-272
1773578761.0269592,21.4,31.0,0,-4172,-184,156
1773578761.0476968,21.4,31.0,0,-4172,-184,156
1773578761.0681574,21.4,31.0,0,-4172,-184,156
1773578761.0887666,21.4,31.0,0,-4192,-72,36
1773578761.10953,21.4,31.0,0,-4192,-72,36
1773578761.1301208,21.4,31.0,0,-4192,-72,36
1773578761.150841,21.4,31.0,0,-4284,-124,-4
1773578761.1714299,21.4,31.0,0,-4284,-124,-4
1773578761.1917222,21.4,31.0,0,-4124,-48,20
1773578761.2122781,21.4,31.0,0,-4124,-48,20
1773578761.2328491,21.4,31.0,0,-4124,-48,20
1773578761.2531757,21.4,31.0,0,-4048,-96,0
1773578761.2737925,21.4,31.0,0,-4048,-96,0
1773578761.2943618,21.4,31.0,0,-4248,-164,148
1773578761.3150387,21.4,31.0,0,-4248,-164,148
1773578761.336301,21.4,31.0,0,-4248,-164,148
1773578761.3567245,21.4,31.0,0,-4164,-80,120
1773578761.3771517,21.4,31.0,0,-4164,-80,120
1773578761.397768,21.4,31.0,0,-4276,-108,12
1773578761.4183912,21.4,31.0,0,-4276,-108,12
1773578761.4389083,21.4,31.0,0,-4276,-108,12
1773578761.4595528,21.4,31.0,0,-4112,-68,100
1773578761.4800146,21.4,31.0,0,-4112,-68,100
1773578761.5007355,21.4,31.0,0,-4112,-68,100
1773578761.5214355,21.4,31.0,0,-4020,-100,100
1773578761.5433292,21.4,31.0,0,-4020,-100,100
1773578761.5641232,21.4,31.0,0,-4208,-112,104
1773578761.5852702,21.4,31.0,0,-4208,-112,104
1773578761.605574,21.4,31.0,0,-4208,-112,104
1773578761.626793,21.4,31.0,0,-4216,-100,68
1773578761.647435,21.4,31.0,0,-4216,-100,68
1773578761.6681147,21.4,31.0,0,-4216,-100,68
1773578761.6887283,21.4,30.9,0,-4244,-188,216
1773578761.7095962,21.4,30.9,0,-4244,-188,216
1773578761.7303364,21.4,30.9,0,-4244,-188,216
1773578761.7508023,21.4,30.9,0,-4204,-48,28
1773578761.7715502,21.4,30.9,0,-4204,-48,28
1773578761.792293,21.4,30.9,0,-4204,-48,28
1773578761.8127127,21.4,30.9,0,-4296,-148,40
1773578761.8332767,21.4,30.9,0,-4296,-148,40
1773578761.8537455,21.4,30.9,0,-4124,-120,36
1773578761.8742774,21.4,30.9,0,-4124,-120,36
1773578761.894465,21.4,30.9,0,-4124,-120,36
1773578761.9149356,21.4,30.9,0,-4128,-108,-184
1773578761.9352965,21.4,30.9,0,-4128,-108,-184
1773578761.9556503,21.4,30.9,0,-4124,-112,120
1773578761.9760807,21.4,30.9,0,-4124,-112,120
1773578761.9968019,21.4,30.9,0,-4124,-112,120
1773578762.0177848,21.4,30.9,0,-4224,-84,132
1773578762.0387187,21.4,30.9,0,-4224,-84,132
1773578762.0594327,21.4,30.9,0,-4296,-144,32
1773578762.0799713,21.4,30.9,0,-4296,-144,32
1773578762.1006641,21.4,30.9,0,-4296,-144,32
1773578762.1211467,21.4,30.9,0,-4168,-100,104
1773578762.141723,21.4,30.9,0,-4168,-100,104
1773578762.1621892,21.4,30.9,0,-4168,-100,104
1773578762.1827202,21.4,30.9,0,-4144,-100,-36
1773578762.2032924,21.4,30.9,0,-4144,-100,-36
1773578762.2236567,21.4,30.9,0,-4056,-64,104
1773578762.2440977,21.4,30.9,0,-4056,-64,104
1773578762.2645638,21.4,30.9,0,-4056,-64,104
1773578762.2857888,21.4,30.9,0,-4204,-164,48
1773578762.3063493,21.4,30.9,0,-4204,-164,48
1773578762.3273296,21.4,30.9,0,-4116,-72,172
1773578762.3478959,21.4,30.9,0,-4116,-72,172
1773578762.3686185,21.4,30.9,0,-4116,-72,172
1773578762.3894413,21.4,30.9,0,-4304,-156,32
1773578762.409935,21.4,30.9,0,-4304,-156,32
1773578762.4304059,21.4,30.9,0,-4304,-156,32
1773578762.4515264,21.4,30.9,0,-4224,-76,52
1773578762.4720788,21.4,30.9,0,-4224,-76,52
1773578762.4927127,21.4,30.9,0,-4184,-112,28
1773578762.5132642,21.4,30.9,0,-4184,-112,28
1773578762.5337183,21.4,30.9,0,-4184,-112,28
1773578762.5541701,21.4,30.9,0,-4032,-44,92
1773578762.5750976,21.4,30.9,0,-4032,-44,92
1773578762.59563,21.4,30.9,0,-4144,-144,-112
1773578762.6163735,21.4,30.9,0,-4144,-144,-112
1773578762.6369257,21.4,30.9,0,-4144,-144,-112
1773578762.6576564,21.4,30.9,0,-4172,-144,164
1773578762.6781557,21.4,30.9,0,-4172,-144,164
1773578762.6987827,21.4,30.9,0,-4224,-104,80
1773578762.7194474,21.4,30.9,0,-4224,-104,80
1773578762.7398312,21.4,30.9,0,-4224,-104,80
1773578762.7601173,21.4,30.9,0,-4240,-148,28
1773578762.7808883,21.4,30.9,0,-4240,-148,28
1773578762.8015804,21.4,30.9,0,-4240,-148,28
1773578762.8217824,21.4,30.9,0,-4200,-48,52
1773578762.8422878,21.4,30.9,0,-4200,-48,52
1773578762.862844,21.4,30.9,0,-4132,-148,324
1773578762.8834982,21.4,30.9,0,-4132,-148,324
1773578762.9038024,21.4,30.9,0,-4132,-148,324
1773578762.9245434,21.4,30.9,0,-4116,-84,4
1773578762.945424,21.4,30.9,0,-4116,-84,4
1773578762.9659524,21.4,30.9,0,-4076,-164,168
1773578762.986684,21.4,30.9,0,-4076,-164,168
1773578763.0073218,21.4,30.9,0,-4076,-164,168
1773578763.027775,21.4,30.9,0,-4132,-32,-100
1773578763.0481303,21.4,30.9,0,-4132,-32,-100
1773578763.0683146,21.4,30.9,0,-4168,-168,180
1773578763.088845,21.4,30.9,0,-4168,-168,180
1773578763.1093416,21.4,30.9,0,-4168,-168,180
1773578763.1302845,21.4,30.9,0,-4216,-80,92
1773578763.1508062,21.4,30.9,0,-4216,-80,92
1773578763.1713254,21.4,30.9,0,-4216,-80,92
1773578763.191934,21.4,30.9,0,-4184,-132,140
1773578763.2125459,21.4,30.9,0,-4184,-132,140
1773578763.2328813,21.4,30.9,0,-4264,-156,44
1773578763.2532825,21.4,30.9,0,-4264,-156,44
1773578763.2738335,21.4,30.9,0,-4264,-156,44
1773578763.294972,21.4,30.9,0,-4200,-144,-12
1773578763.3157144,21.4,30.9,0,-4200,-144,-12
1773578763.3360512,21.4,30.9,0,-4204,-80,116
1773578763.3567452,21.4,30.9,0,-4204,-80,116
1773578763.3775852,21.4,30.9,0,-4204,-80,116
1773578763.3981514,21.4,30.9,0,-4084,-36,-4
1773578763.4183989,21.4,30.9,0,-4084,-36,-4
1773578763.4389775,21.4,30.9,0,-4084,-36,-4
1773578763.4596374,21.4,30.9,0,-4192,-124,-148
1773578763.4800172,21.4,30.9,0,-4192,-124,-148
1773578763.501096,21.4,30.9,0,-4024,-68,-188
1773578763.5218332,21.4,30.9,0,-4024,-68,-188
1773578763.5420892,21.4,30.9,0,-4024,-68,-188
1773578763.5629172,21.4,30.9,0,-4180,-176,56
1773578763.5834424,21.4,30.9,0,-4180,-176,56
1773578763.6040125,21.4,30.9,0,-4052,-36,60
1773578763.625057,21.4,30.9,0,-4052,-36,60
1773578763.645516,21.4,30.9,0,-4052,-36,60
1773578763.6661007,21.4,30.9,0,-4196,-192,216
1773578763.686709,21.4,30.9,0,-4196,-192,216
1773578763.707138,21.4,30.9,0,-4196,-192,216
1773578763.7276573,21.4,30.9,0,-4196,-192,216
1773578763.7478971,21.4,30.9,0,-4216,-180,484
1773578763.7687094,21.4,30.9,0,-4216,-180,484
1773578763.7892103,21.4,30.9,0,-4076,-80,-84
1773578763.8099236,21.4,30.9,0,-4076,-80,-84
1773578763.8306386,21.4,30.9,0,-4076,-80,-84
1773578763.8512342,21.4,30.9,0,-4168,-200,176
1773578763.872613,21.4,30.9,0,-4168,-200,176
1773578763.8932464,21.4,30.9,0,-4208,-56,-196
1773578763.913927,21.4,30.9,0,-4208,-56,-196
1773578763.9344125,21.4,30.9,0,-4208,-56,-196
1773578763.9546149,21.4,30.9,0,-4108,-124,92
1773578763.975338,21.4,30.9,0,-4108,-124,92
1773578763.9959424,21.4,30.9,0,-4208,-160,188
1773578764.016526,21.4,30.9,0,-4208,-160,188
1773578764.0369105,21.4,30.9,0,-4208,-160,188
1773578764.0573554,21.4,30.9,0,-4040,-20,-80
1773578764.0779696,21.4,30.9,0,-4040,-20,-80
1773578764.0985134,21.4,30.9,0,-4040,-20,-80
1773578764.1188262,21.4,30.9,0,-4204,-128,104
1773578764.1393366,21.4,30.9,0,-4204,-128,104
1773578764.1598945,21.4,30.9,0,-4208,-68,72
1773578764.1801968,21.4,30.9,0,-4208,-68,72
1773578764.2008617,21.4,30.9,0,-4208,-68,72
1773578764.2216544,21.4,30.9,0,-4040,-72,116
1773578764.2422874,21.4,30.9,0,-4040,-72,116
1773578764.2627797,21.4,30.9,0,-4312,-168,68
1773578764.2836316,21.4,30.9,0,-4312,-168,68
1773578764.3038323,21.4,30.9,0,-4312,-168,68
1773578764.3241315,21.4,30.9,0,-4148,-56,-60
1773578764.3448927,21.4,30.9,0,-4148,-56,-60
1773578764.365535,21.4,30.9,0,-4148,-56,-60
1773578764.3861113,21.4,30.9,0,-4176,-232,240
1773578764.40701,21.4,30.9,0,-4176,-232,240
1773578764.427281,21.4,30.9,0,-4196,-28,-188
1773578764.4477143,21.4,30.9,0,-4196,-28,-188
1773578764.4682643,21.4,30.9,0,-4196,-28,-188
1773578764.4887853,21.4,30.9,0,-4236,-176,112
1773578764.509348,21.4,30.9,0,-4236,-176,112
1773578764.5296214,21.4,30.9,0,-4240,-136,-4
1773578764.54991,21.4,30.9,0,-4240,-136,-4
1773578764.5702877,21.4,30.9,0,-4240,-136,-4
1773578764.5907872,21.4,30.9,0,-4196,-32,-72
1773578764.6111562,21.4,30.9,0,-4196,-32,-72
1773578764.6318214,21.4,30.9,0,-4144,-128,92
1773578764.6522782,21.4,30.9,0,-4144,-128,92
1773578764.6730084,21.4,30.9,0,-4144,-128,92
1773578764.6933568,21.4,30.9,0,-4264,-144,72
1773578764.7137356,21.4,30.9,0,-4264,-144,72
1773578764.7343595,21.4,30.9,0,-4264,-144,72
1773578764.7550867,21.4,30.9,0,-4192,-92,100
1773578764.7757406,21.4,30.9,0,-4192,-92,100
1773578764.7962635,21.4,30.9,0,-4072,-120,16
1773578764.816812,21.4,30.9,0,-4072,-120,16
1773578764.8373926,21.4,30.9,0,-4072,-120,16
1773578764.8581645,21.4,30.9,0,-4296,-128,64
1773578764.8787553,21.4,30.9,0,-4296,-128,64
1773578764.899385,21.4,30.9,0,-4100,-4,28
1773578764.9201825,21.4,30.9,0,-4100,-4,28
1773578764.9408617,21.4,30.9,0,-4100,-4,28
1773578764.9615371,21.4,30.9,0,-4116,-180,84
1773578764.9823909,21.4,30.9,0,-4116,-180,84
1773578765.0028677,21.4,30.9,0,-4232,-180,-52
1773578765.023617,21.4,30.9,0,-4232,-180,-52
1773578765.0440023,21.4,30.9,0,-4232,-180,-52
1773578765.064603,21.4,30.9,0,-4136,-52,-4
1773578765.0851383,21.4,30.9,0,-4136,-52,-4
1773578765.105837,21.4,30.9,0,-4136,-52,-4
1773578765.12614,21.4,30.9,0,-4120,-140,100
1773578765.1467898,21.4,30.9,0,-4120,-140,100
1773578765.1674786,21.4,30.9,0,-4276,-92,48
1773578765.1877606,21.4,30.9,0,-4276,-92,48
1773578765.208271,21.4,30.9,0,-4276,-92,48
1773578765.2290375,21.4,30.9,0,-4156,-60,24
1773578765.249237,21.4,30.9,0,-4156,-60,24
1773578765.2699072,21.4,30.9,0,-4124,-120,112
1773578765.2907197,21.4,30.9,0,-4124,-120,112
1773578765.311071,21.4,30.9,0,-4124,-120,112
1773578765.3317633,21.4,30.9,0,-4268,-236,36
1773578765.352643,21.4,30.9,0,-4268,-236,36
1773578765.3733826,21.4,30.9,0,-4268,-236,36
1773578765.3944156,21.4,30.9,0,-4160,-120,76
1773578765.4149494,21.4,30.9,0,-4160,-120,76
1773578765.4351993,21.4,30.9,0,-4036,-92,52
1773578765.4555867,21.4,30.9,0,-4036,-92,52
1773578765.4762645,21.4,30.9,0,-4036,-92,52
1773578765.4969373,21.4,30.9,0,-4296,-200,24
1773578765.5174532,21.4,30.9,0,-4296,-200,24
1773578765.5382102,21.4,30.9,0,-4240,-16,16
1773578765.5588963,21.4,30.9,0,-4240,-16,16
1773578765.5793326,21.4,30.9,0,-4240,-16,16
1773578765.6000018,21.4,30.9,0,-4136,-164,60
1773578765.6202323,21.4,30.9,0,-4136,-164,60
1773578765.6406047,21.4,30.9,0,-4172,-200,164
1773578765.6608894,21.4,30.9,0,-4172,-200,164
1773578765.6813347,21.4,30.9,0,-4172,-200,164
1773578765.7017128,21.4,30.9,0,-4292,-144,56
1773578765.7221253,21.4,30.9,0,-4292,-144,56
1773578765.7424793,21.4,30.9,0,-4292,-144,56
1773578765.7629154,21.4,30.9,0,-4292,-144,56
1773578765.7837322,21.4,30.8,0,-4296,-100,-120
1773578765.8038971,21.4,30.8,0,-4296,-100,-120
1773578765.8245723,21.4,30.8,0,-4296,-100,-120
1773578765.845333,21.4,30.8,0,-4184,-72,-44
1773578765.8662276,21.4,30.8,0,-4184,-72,-44
1773578765.8872628,21.4,30.8,0,-4072,-156,96
1773578765.907779,21.4,30.8,0,-4072,-156,96
1773578765.9283087,21.4,30.8,0,-4072,-156,96
1773578765.9488091,21.4,30.8,0,-4120,-148,112
1773578765.9693308,21.4,30.8,0,-4120,-148,112
1773578765.989699,21.4,30.8,0,-4276,-48,8
1773578766.0100555,21.4,30.8,0,-4276,-48,8
1773578766.0305738,21.4,30.8,0,-4276,-48,8
1773578766.051307,21.4,30.8,0,-4176,-88,104
1773578766.0716388,21.4,30.8,0,-4176,-88,104
1773578766.0922647,21.4,30.8,0,-4020,-140,52
1773578766.1129239,21.4,30.8,0,-4020,-140,52
1773578766.133375,21.4,30.8,0,-4020,-140,52
1773578766.1536791,21.4,30.8,0,-4260,-168,44
1773578766.1743345,21.4,30.8,0,-4260,-168,44
1773578766.1947446,21.4,30.8,0,-4260,-168,44
1773578766.2152205,21.4,30.8,0,-4304,-136,-20
1773578766.235623,21.4,30.8,0,-4304,-136,-20
1773578766.256237,21.4,30.8,0,-4140,-100,48
1773578766.277,21.4,30.8,0,-4140,-100,48
1773578766.2973578,21.4,30.8,0,-4140,-100,48
1773578766.31787,21.4,30.8,0,-3912,-128,32
1773578766.3385985,21.4,30.8,0,-3912,-128,32
1773578766.3591125,21.4,30.8,0,-4252,-132,60
1773578766.3796508,21.4,30.8,0,-4252,-132,60
1773578766.400313,21.4,30.8,0,-4252,-132,60
1773578766.420705,21.4,30.8,0,-4264,-76,36
1773578766.4412596,21.4,30.8,0,-4264,-76,36
1773578766.4620404,21.4,30.8,0,-4120,-112,-120
1773578766.4827259,21.4,30.8,0,-4120,-112,-120
1773578766.503276,21.4,30.8,0,-4120,-112,-120
1773578766.5237072,21.4,30.8,0,-3964,-104,72
1773578766.5443015,21.4,30.8,0,-3964,-104,72
1773578766.5650904,21.4,30.8,0,-3964,-104,72
1773578766.5854836,21.4,30.8,0,-4204,-120,108
1773578766.6061344,21.4,30.8,0,-4204,-120,108
1773578766.6268246,21.4,30.8,0,-4316,-64,-24
1773578766.6472082,21.4,30.8,0,-4316,-64,-24
1773578766.6678307,21.4,30.8,0,-4316,-64,-24
1773578766.688254,21.4,30.8,0,-4196,-104,-4
1773578766.708675,21.4,30.8,0,-4196,-104,-4
1773578766.7292273,21.4,30.8,0,-4056,-140,104
1773578766.7496824,21.4,30.8,0,-4056,-140,104
1773578766.7704356,21.4,30.8,0,-4056,-140,104
1773578766.7911327,21.4,30.8,0,-4116,-216,68
1773578766.8119338,21.4,30.8,0,-4116,-216,68
1773578766.8325255,21.4,30.8,0,-4300,-168,96
1773578766.8532865,21.4,30.8,0,-4300,-168,96
1773578766.8737135,21.4,30.8,0,-4300,-168,96
1773578766.8944192,21.4,30.8,0,-4300,-76,-24
1773578766.9151347,21.4,30.8,0,-4300,-76,-24
1773578766.935519,21.4,30.8,0,-4300,-76,-24
1773578766.9561086,21.4,30.8,0,-4160,-112,36
1773578766.9769943,21.4,30.8,0,-4160,-112,36
1773578766.9977167,21.4,30.8,0,-3972,-112,108
1773578767.0183718,21.4,30.8,0,-3972,-112,108
1773578767.0390942,21.4,30.8,0,-3972,-112,108
1773578767.0595665,21.4,30.8,0,-4160,-224,84
1773578767.0805316,21.4,30.8,0,-4160,-224,84
1773578767.1013837,21.4,30.8,0,-4216,-72,72
1773578767.1216688,21.4,30.8,0,-4216,-72,72
1773578767.1424336,21.4,30.8,0,-4216,-72,72
1773578767.1629481,21.4,30.8,0,-4308,-84,268
1773578767.1832786,21.4,30.8,0,-4308,-84,268
1773578767.2039175,21.4,30.8,0,-4188,-136,36
1773578767.224519,21.4,30.8,0,-4188,-136,36
1773578767.2448802,21.4,30.8,0,-4188,-136,36
1773578767.2653246,21.4,30.8,0,-4048,-116,112
1773578767.2855458,21.4,30.8,0,-4048,-116,112
1773578767.3059447,21.4,30.8,0,-4048,-116,112
1773578767.3265548,21.4,30.8,0,-4116,-120,72
1773578767.346993,21.4,30.8,0,-4116,-120,72
1773578767.3674955,21.4,30.8,0,-4200,-144,56
1773578767.387676,21.4,30.8,0,-4200,-144,56
1773578767.408396,21.4,30.8,0,-4200,-144,56
1773578767.42879,21.4,30.8,0,-4228,-120,116
1773578767.4496193,21.4,30.8,0,-4228,-120,116
1773578767.4701095,21.4,30.8,0,-4212,-112,8
1773578767.4911635,21.4,30.8,0,-4212,-112,8
1773578767.5120633,21.4,30.8,0,-4212,-112,8
1773578767.532519,21.4,30.8,0,-4208,-128,104
1773578767.5532484,21.4,30.8,0,-4208,-128,104
1773578767.5739894,21.4,30.8,0,-4208,-128,104
1773578767.5947247,21.4,30.8,0,-4132,-96,-8
1773578767.6153316,21.4,30.8,0,-4132,-96,-8
1773578767.6356826,21.4,30.8,0,-4148,-140,16
1773578767.65606,21.4,30.8,0,-4148,-140,16
1773578767.6767888,21.4,30.8,0,-4148,-140,16
1773578767.6970856,21.4,30.8,0,-4184,-104,64
1773578767.7183406,21.4,30.8,0,-4184,-104,64
1773578767.7388752,21.4,30.8,0,-4176,-132,172
1773578767.7593884,21.4,30.8,0,-4176,-132,172
1773578767.7800753,21.4,30.8,0,-4176,-132,172
1773578767.8007858,21.4,30.8,0,-4176,-132,172
1773578767.821127,21.4,30.8,0,-4160,-156,16
1773578767.8421526,21.4,30.8,0,-4160,-156,16
1773578767.862738,21.4,30.8,0,-4160,-156,16
1773578767.8833523,21.4,30.8,0,-4196,-108,-8
1773578767.903976,21.4,30.8,0,-4196,-108,-8
1773578767.9246132,21.4,30.8,0,-4116,-140,-4
1773578767.9449813,21.4,30.8,0,-4116,-140,-4
1773578767.9656987,21.4,30.8,0,-4116,-140,-4
1773578767.9862537,21.4,30.8,0,-4216,-144,16
1773578768.0066547,21.4,30.8,0,-4216,-144,16
1773578768.0269883,21.4,30.8,0,-4176,-128,52
1773578768.0476341,21.4,30.8,0,-4176,-128,52
1773578768.068869,21.4,30.8,0,-4176,-128,52
1773578768.0898418,21.4,30.8,0,-4188,-116,132
1773578768.1102238,21.4,30.8,0,-4188,-116,132
1773578768.1307807,21.4,30.8,0,-4160,-108,100
1773578768.1525354,21.4,30.8,0,-4160,-108,100
1773578768.1731818,21.4,30.8,0,-4160,-108,100
1773578768.1936612,21.4,30.8,0,-4164,-108,112
1773578768.2141764,21.4,30.8,0,-4164,-108,112
1773578768.2353754,21.4,30.8,0,-4164,-108,112
1773578768.2562604,21.4,30.8,0,-4208,-108,68
1773578768.2768795,21.4,30.8,0,-4208,-108,68
1773578768.2972686,21.4,30.8,0,-4160,-96,-112
1773578768.3178036,21.4,30.8,0,-4160,-96,-112
1773578768.3382115,21.4,30.8,0,-4160,-96,-112
1773578768.3585153,21.4,30.8,0,-4208,-124,80
1773578768.3791351,21.4,30.8,0,-4208,-124,80
1773578768.399455,21.4,30.8,0,-4124,-76,60
1773578768.42001,21.4,30.8,0,-4124,-76,60
1773578768.440785,21.4,30.8,0,-4124,-76,60
1773578768.461548,21.4,30.8,0,-4204,-152,84
1773578768.4822628,21.4,30.8,0,-4204,-152,84
1773578768.502532,21.4,30.8,0,-4112,-108,64
1773578768.5231314,21.4,30.8,0,-4112,-108,64
1773578768.5438046,21.4,30.8,0,-4112,-108,64
1773578768.5642896,21.4,30.8,0,-4184,-108,28
1773578768.5849326,21.4,30.8,0,-4184,-108,28
1773578768.605683,21.4,30.8,0,-4184,-108,28
1773578768.626486,21.4,30.8,0,-4176,-116,20
1773578768.6470478,21.4,30.8,0,-4176,-116,20
1773578768.667707,21.4,30.8,0,-4124,-164,72
1773578768.688079,21.4,30.8,0,-4124,-164,72
1773578768.708858,21.4,30.8,0,-4124,-164,72
1773578768.7294664,21.4,30.8,0,-4196,-112,76
1773578768.7501407,21.4,30.8,0,-4196,-112,76
1773578768.7706497,21.4,30.8,0,-4180,-108,84
1773578768.7912242,21.4,30.8,0,-4180,-108,84
1773578768.8116715,21.4,30.8,0,-4180,-108,84
1773578768.832053,21.4,30.8,0,-4172,-136,76
1773578768.8526316,21.4,30.8,0,-4172,-136,76
1773578768.8733428,21.4,30.8,0,-4172,-136,76
1773578768.8937652,21.4,30.8,0,-4180,-112,48
1773578768.9147556,21.4,30.8,0,-4180,-112,48
1773578768.9355717,21.4,30.8,0,-4192,-108,16
1773578768.955989,21.4,30.8,0,-4192,-108,16
1773578768.976612,21.4,30.8,0,-4192,-108,16
1773578768.9972577,21.4,30.8,0,-4192,-124,68
1773578769.0180066,21.4,30.8,0,-4192,-124,68
1773578769.0387459,21.4,30.8,0,-4148,-72,44
1773578769.0594277,21.4,30.8,0,-4148,-72,44
1773578769.0800416,21.4,30.8,0,-4148,-72,44
1773578769.100242,21.4,30.8,0,-4204,-120,32
1773578769.1207645,21.4,30.8,0,-4204,-120,32
1773578769.141202,21.4,30.8,0,-4132,-96,8
1773578769.1623237,21.4,30.8,0,-4132,-96,8
1773578769.1828523,21.4,30.8,0,-4132,-96,8
1773578769.203571,21.4,30.8,0,-4196,-124,56
1773578769.2245352,21.4,30.8,0,-4196,-124,56
1773578769.2450652,21.4,30.8,0,-4176,-112,24
1773578769.265627,21.4,30.8,0,-4176,-112,24
1773578769.2862387,21.4,30.8,0,-4176,-112,24
1773578769.3066425,21.4,30.8,0,-4208,-116,16
1773578769.3269303,21.4,30.8,0,-4208,-116,16
1773578769.3474026,21.4,30.8,0,-4208,-116,16
1773578769.3676858,21.4,30.8,0,-4144,-104,40
1773578769.388176,21.4,30.8,0,-4144,-104,40
1773578769.4084852,21.4,30.8,0,-4184,-100,48
1773578769.4291425,21.4,30.8,0,-4184,-100,48
1773578769.449603,21.4,30.8,0,-4184,-100,48
1773578769.4699798,21.4,30.8,0,-4172,-104,92
1773578769.4908485,21.4,30.8,0,-4172,-104,92
1773578769.5111814,21.4,30.8,0,-4164,-92,48
1773578769.5316167,21.4,30.8,0,-4164,-92,48
1773578769.5524366,21.4,30.8,0,-4164,-92,48
1773578769.5729995,21.4,30.8,0,-4172,-152,48
1773578769.5938194,21.4,30.8,0,-4172,-152,48
1773578769.6144915,21.4,30.8,0,-4172,-152,48
1773578769.634783,21.4,30.8,0,-4172,-116,88
1773578769.655355,21.4,30.8,0,-4172,-116,88
1773578769.6757617,21.4,30.8,0,-4152,-84,40
1773578769.696285,21.4,30.8,0,-4152,-84,40
1773578769.7168293,21.4,30.8,0,-4152,-84,40
1773578769.7370253,21.4,30.8,0,-4192,-108,64
1773578769.7575474,21.4,30.8,0,-4192,-108,64
1773578769.7781873,21.4,30.8,0,-4164,-148,60
1773578769.7988117,21.4,30.8,0,-4164,-148,60
1773578769.8193557,21.4,30.8,0,-4164,-148,60
1773578769.8398778,21.4,30.8,0,-4164,-148,60
1773578769.8603854,21.4,30.7,0,-4168,-112,48
1773578769.8808239,21.4,30.7,0,-4168,-112,48
1773578769.9019601,21.4,30.7,0,-4168,-112,48
1773578769.92257,21.4,30.7,0,-4180,-104,28
1773578769.9433587,21.4,30.7,0,-4180,-104,28
1773578769.9640043,21.4,30.7,0,-4180,-96,28
1773578769.9849715,21.4,30.7,0,-4180,-96,28
1773578770.0053089,21.4,30.7,0,-4180,-96,28
1773578770.026091,21.4,30.7,0,-4156,-108,144
1773578770.0465033,21.4,30.7,0,-4156,-108,144
1773578770.0671062,21.4,30.7,0,-4216,-88,36
1773578770.0877604,21.4,30.7,0,-4216,-88,36
1773578770.108355,21.4,30.7,0,-4216,-88,36
1773578770.1288276,21.4,30.7,0,-4172,-128,48
1773578770.1495879,21.4,30.7,0,-4172,-128,48
1773578770.1699357,21.4,30.7,0,-4172,-128,48
1773578770.190681,21.4,30.7,0,-4152,-100,44
1773578770.2113974,21.4,30.7,0,-4152,-100,44
1773578770.2316866,21.4,30.7,0,-4156,-116,60
1773578770.2522805,21.4,30.7,0,-4156,-116,60
1773578770.2725708,21.4,30.7,0,-4156,-116,60
1773578770.2933967,21.4,30.7,0,-4204,-120,56
1773578770.3139098,21.4,30.7,0,-4204,-120,56
1773578770.3343914,21.4,30.7,0,-4148,-116,68
1773578770.3545647,21.4,30.7,0,-4148,-116,68
1773578770.3750331,21.4,30.7,0,-4148,-116,68
1773578770.3952942,21.4,30.7,0,-4184,-112,80
1773578770.415713,21.4,30.7,0,-4184,-112,80
1773578770.436091,21.4,30.7,0,-4184,-112,80
1773578770.4567788,21.4,30.7,0,-4168,-188,20
1773578770.4774828,21.4,30.7,0,-4168,-188,20
1773578770.4980404,21.4,30.7,0,-4160,-72,52
1773578770.5189087,21.4,30.7,0,-4160,-72,52
1773578770.5393496,21.4,30.7,0,-4160,-72,52
1773578770.5602584,21.4,30.7,0,-4188,-116,60
1773578770.5807672,21.4,30.7,0,-4188,-116,60
1773578770.6015942,21.4,30.7,0,-4180,-88,36
1773578770.6219625,21.4,30.7,0,-4180,-88,36
1773578770.6422172,21.4,30.7,0,-4180,-88,36
1773578770.6625404,21.4,30.7,0,-4172,-124,72
1773578770.6832538,21.4,30.7,0,-4172,-124,72
1773578770.7044244,21.4,30.7,0,-4172,-60,20
1773578770.7246609,21.4,30.7,0,-4172,-60,20
1773578770.7449667,21.4,30.7,0,-4172,-60,20
1773578770.7654939,21.4,30.7,0,-4216,-136,60
1773578770.7862737,21.4,30.7,0,-4216,-136,60
1773578770.8069558,21.4,30.7,0,-4216,-136,60
1773578770.8275084,21.4,30.7,0,-4152,-76,28
1773578770.8480911,21.4,30.7,0,-4152,-76,28
1773578770.868484,21.4,30.7,0,-4184,-132,52
1773578770.8891165,21.4,30.7,0,-4184,-132,52
1773578770.90956,21.4,30.7,0,-4184,-132,52
1773578770.9302585,21.4,30.7,0,-4192,-116,40
1773578770.9508832,21.4,30.7,0,-4192,-116,40
1773578770.9714017,21.4,30.7,0,-4156,-120,60
1773578770.9918528,21.4,30.7,0,-4156,-120,60
1773578771.0126255,21.4,30.7,0,-4156,-120,60
1773578771.0330217,21.4,30.7,0,-4180,-100,60
1773578771.0531893,21.4,30.7,0,-4180,-100,60
1773578771.0736873,21.4,30.7,0,-4180,-100,60
1773578771.0940337,21.4,30.7,0,-4204,-136,64
1773578771.1145823,21.4,30.7,0,-4204,-136,64
1773578771.1352704,21.4,30.7,0,-4172,-120,44
1773578771.1558895,21.4,30.7,0,-4172,-120,44
1773578771.1762102,21.4,30.7,0,-4172,-120,44
1773578771.1967483,21.4,30.7,0,-4200,-136,60
1773578771.2174509,21.4,30.7,0,-4200,-136,60
1773578771.2379835,21.4,30.7,0,-4164,-104,40
1773578771.258441,21.4,30.7,0,-4164,-104,40
1773578771.2791045,21.4,30.7,0,-4164,-104,40
1773578771.299763,21.4,30.7,0,-4172,-120,24
1773578771.3200881,21.4,30.7,0,-4172,-120,24
1773578771.3406096,21.4,30.7,0,-4192,-112,80
1773578771.361339,21.4,30.7,0,-4192,-112,80
1773578771.381527,21.4,30.7,0,-4192,-112,80
1773578771.4017541,21.4,30.7,0,-4164,-108,52
1773578771.4224672,21.4,30.7,0,-4164,-108,52
1773578771.4426754,21.4,30.7,0,-4164,-108,52
1773578771.4631748,21.4,30.7,0,-4164,-116,56
1773578771.4835403,21.4,30.7,0,-4164,-116,56
1773578771.503857,21.4,30.7,0,-4188,-120,56
1773578771.5243227,21.4,30.7,0,-4188,-120,56
1773578771.5448046,21.4,30.7,0,-4188,-120,56
1773578771.56535,21.4,30.7,0,-4188,-120,68
1773578771.586087,21.4,30.7,0,-4188,-120,68
1773578771.6064086,21.4,30.7,0,-4184,-84,16
1773578771.62676,21.4,30.7,0,-4184,-84,16
1773578771.6471806,21.4,30.7,0,-4184,-84,16
1773578771.6675959,21.4,30.7,0,-4156,-124,64
1773578771.6883109,21.4,30.7,0,-4156,-124,64
1773578771.7091165,21.4,30.7,0,-4156,-124,64
1773578771.7296674,21.4,30.7,0,-4176,-116,56
1773578771.7503607,21.4,30.7,0,-4176,-116,56
1773578771.7706797,21.4,30.7,0,-4184,-140,60
1773578771.791303,21.4,30.7,0,-4184,-140,60
1773578771.8117807,21.4,30.7,0,-4184,-140,60
1773578771.8320355,21.4,30.7,0,-4180,-124,48
1773578771.8525014,21.4,30.7,0,-4180,-124,48
1773578771.8732495,21.4,30.7,0,-4180,-124,48
1773578771.8935227,21.4,30.7,0,-4180,-124,48
1773578771.913976,21.4,30.7,0,-4160,-132,60
1773578771.9344938,21.4,30.7,0,-4160,-132,60
1773578771.955115,21.4,30.7,0,-4140,-104,56
1773578771.9758594,21.4,30.7,0,-4140,-104,56
1773578771.996325,21.4,30.7,0,-4140,-104,56
1773578772.0169477,21.4,30.7,0,-4192,-108,64
1773578772.0375497,21.4,30.7,0,-4192,-108,64
1773578772.057819,21.4,30.7,0,-4172,-92,12
1773578772.0785887,21.4,30.7,0,-4172,-92,12
1773578772.099326,21.4,30.7,0,-4172,-92,12
1773578772.1200182,21.4,30.7,0,-4172,-96,72
1773578772.1405764,21.4,30.7,0,-4172,-96,72
1773578772.161247,21.4,30.7,0,-4172,-120,56
1773578772.1817062,21.4,30.7,0,-4172,-120,56
1773578772.2023036,21.4,30.7,0,-4172,-120,56
1773578772.2229605,21.4,30.7,0,-4156,-120,40
1773578772.243501,21.4,30.7,0,-4156,-120,40
1773578772.263975,21.4,30.7,0,-4156,-120,40
1773578772.2844114,21.4,30.7,0,-4172,-140,32
1773578772.304914,21.4,30.7,0,-4172,-140,32
1773578772.3253834,21.4,30.7,0,-4164,-104,64
1773578772.346171,21.4,30.7,0,-4164,-104,64
1773578772.3668072,21.4,30.7,0,-4164,-104,64
1773578772.3874886,21.4,30.7,0,-4168,-136,96
1773578772.4078686,21.4,30.7,0,-4168,-136,96
1773578772.4284842,21.4,30.7,0,-4164,-140,20
1773578772.448967,21.4,30.7,0,-4164,-140,20
1773578772.4697433,21.4,30.7,0,-4164,-140,20
1773578772.4905248,21.4,30.7,0,-4184,-124,48
1773578772.5114384,21.4,30.7,0,-4184,-124,48
1773578772.5317628,21.4,30.7,0,-4184,-124,48
1773578772.5522597,21.4,30.7,0,-4172,-120,76
1773578772.5731058,21.4,30.7,0,-4172,-120,76
1773578772.5934243,21.4,30.7,0,-4168,-108,40
1773578772.6140962,21.4,30.7,0,-4168,-108,40
1773578772.6355226,21.4,30.7,0,-4168,-108,40
1773578772.656078,21.4,30.7,0,-4168,-108,32
1773578772.6765294,21.4,30.7,0,-4168,-108,32
1773578772.6968749,21.4,30.7,0,-4196,-140,48
1773578772.7177188,21.4,30.7,0,-4196,-140,48
1773578772.7382166,21.4,30.7,0,-4196,-140,48
1773578772.7591224,21.4,30.7,0,-4152,-112,48
1773578772.7800863,21.4,30.7,0,-4152,-112,48
1773578772.8008275,21.4,30.7,0,-4176,-120,52
1773578772.8214953,21.4,30.7,0,-4176,-120,52
1773578772.8422506,21.4,30.7,0,-4176,-120,52
1773578772.8629532,21.4,30.7,0,-4176,-108,112
1773578772.8832655,21.4,30.7,0,-4176,-108,112
1773578772.904279,21.4,30.7,0,-4184,-128,68
1773578772.9248796,21.4,30.7,0,-4184,-128,68
1773578772.9456358,21.4,30.7,0,-4184,-128,68
1773578772.9660766,21.4,30.7,0,-4168,-112,60
1773578772.9865482,21.4,30.7,0,-4168,-112,60
1773578773.0072987,21.4,30.7,0,-4168,-112,60
1773578773.0279744,21.4,30.7,0,-4156,-116,60
1773578773.048436,21.4,30.7,0,-4156,-116,60
1773578773.0690966,21.4,30.7,0,-4176,-128,64
1773578773.0897436,21.4,30.7,0,-4176,-128,64
1773578773.110168,21.4,30.7,0,-4176,-128,64
1773578773.1312656,21.4,30.7,0,-4172,-132,56
1773578773.151623,21.4,30.7,0,-4172,-132,56
1773578773.172379,21.4,30.7,0,-4168,-128,44
1773578773.1928349,21.4,30.7,0,-4168,-128,44
1773578773.213323,21.4,30.7,0,-4168,-128,44
1773578773.233976,21.4,30.7,0,-4172,-104,56
1773578773.254495,21.4,30.7,0,-4172,-104,56
1773578773.2751117,21.4,30.7,0,-4180,-116,32
1773578773.2954314,21.4,30.7,0,-4180,-116,32
1773578773.315665,21.4,30.7,0,-4180,-116,32
1773578773.336169,21.4,30.7,0,-4176,-120,24
1773578773.356814,21.4,30.7,0,-4176,-120,24
1773578773.377311,21.4,30.7,0,-4176,-120,24
1773578773.397511,21.4,30.7,0,-4164,-92,28
1773578773.418268,21.4,30.7,0,-4164,-92,28
1773578773.4387255,21.4,30.7,0,-4176,-96,64
1773578773.4593992,21.4,30.7,0,-4176,-96,64
1773578773.479986,21.4,30.7,0,-4176,-96,64
1773578773.500889,21.4,30.7,0,-4172,-124,48
1773578773.5215592,21.4,30.7,0,-4172,-124,48
1773578773.542086,21.4,30.7,0,-4172,-96,32
1773578773.5627124,21.4,30.7,0,-4172,-96,32
1773578773.5833945,21.4,30.7,0,-4172,-96,32
1773578773.604061,21.4,30.7,0,-4160,-120,60
1773578773.6244252,21.4,30.7,0,-4160,-120,60
1773578773.6449013,21.4,30.7,0,-4160,-120,60
1773578773.665498,21.4,30.7,0,-4152,-120,60
1773578773.6862786,21.4,30.7,0,-4152,-120,60
1773578773.7069204,21.4,30.7,0,-4188,-116,60
1773578773.7274292,21.4,30.7,0,-4188,-116,60
1773578773.748377,21.4,30.7,0,-4188,-116,60
1773578773.7694972,21.4,30.7,0,-4176,-132,40
1773578773.7900991,21.4,30.7,0,-4176,-132,40
1773578773.8107529,21.4,30.7,0,-4184,-120,48
1773578773.831063,21.4,30.7,0,-4184,-120,48
1773578773.8517091,21.4,30.7,0,-4184,-120,48
1773578773.872463,21.4,30.7,0,-4160,-124,36
1773578773.893026,21.4,30.7,0,-4160,-124,36
1773578773.9133065,21.4,30.7,0,-4160,-124,36
1773578773.933568,21.4,30.7,0,-4160,-124,36
1773578773.9540217,21.4,30.6,0,-4160,-104,28
1773578773.9744866,21.4,30.6,0,-4160,-104,28
1773578773.995083,21.4,30.6,0,-4168,-120,48
1773578774.0156543,21.4,30.6,0,-4168,-120,48
1773578774.0361302,21.4,30.6,0,-4168,-120,48
1773578774.0567226,21.4,30.6,0,-4192,-116,60
1773578774.0774307,21.4,30.6,0,-4192,-116,60
1773578774.0980537,21.4,30.6,0,-4184,-120,84
1773578774.118419,21.4,30.6,0,-4184,-120,84
1773578774.138916,21.4,30.6,0,-4184,-120,84
1773578774.1595058,21.4,30.6,0,-4156,-128,68
1773578774.1797538,21.4,30.6,0,-4156,-128,68
1773578774.2004476,21.4,30.6,0,-4156,-128,68
1773578774.2213566,21.4,30.6,0,-4152,-136,64
1773578774.2418442,21.4,30.6,0,-4152,-136,64
1773578774.2625194,21.4,30.6,0,-4184,-124,56
1773578774.283389,21.4,30.6,0,-4184,-124,56
1773578774.3036904,21.4,30.6,0,-4184,-124,56
1773578774.3240583,21.4,30.6,0,-4164,-112,60
1773578774.344368,21.4,30.6,0,-4164,-112,60
1773578774.3649638,21.4,30.6,0,-4164,-92,32
1773578774.385668,21.4,30.6,0,-4164,-92,32
1773578774.4065475,21.4,30.6,0,-4164,-92,32
1773578774.4269412,21.4,30.6,0,-4204,-112,56
1773578774.4481518,21.4,30.6,0,-4204,-112,56
1773578774.4687133,21.4,30.6,0,-4152,-124,112
1773578774.4893155,21.4,30.6,0,-4152,-124,112
1773578774.5099292,21.4,30.6,0,-4152,-124,112
1773578774.5304046,21.4,30.6,0,-4176,-116,60
1773578774.5511858,21.4,30.6,0,-4176,-116,60
1773578774.5723162,21.4,30.6,0,-4176,-116,60
1773578774.592801,21.4,30.6,0,-4168,-100,20
1773578774.6133652,21.4,30.6,0,-4168,-100,20
1773578774.6338248,21.4,30.6,0,-4132,-120,84
1773578774.6542237,21.4,30.6,0,-4132,-120,84
1773578774.6749375,21.4,30.6,0,-4132,-120,84
1773578774.6955223,21.4,30.6,0,-4156,-92,36
1773578774.7163565,21.4,30.6,0,-4156,-92,36
1773578774.7365484,21.4,30.6,0,-4184,-132,32
1773578774.7573743,21.4,30.6,0,-4184,-132,32
1773578774.7778416,21.4,30.6,0,-4184,-132,32
1773578774.7984617,21.4,30.6,0,-4176,-128,48
1773578774.819006,21.4,30.6,0,-4176,-128,48
1773578774.8396263,21.4,30.6,0,-4168,-112,60
1773578774.8601458,21.4,30.6,0,-4168,-112,60
1773578774.8805556,21.4,30.6,0,-4168,-112,60
1773578774.9010718,21.4,30.6,0,-4192,-124,56
1773578774.921554,21.4,30.6,0,-4192,-124,56
1773578774.9420013,21.4,30.6,0,-4192,-124,56
1773578774.9624972,21.4,30.6,0,-4168,-104,48
1773578774.9829051,21.4,30.6,0,-4168,-104,48
1773578775.0033815,21.4,30.6,0,-4184,-132,60
1773578775.0238643,21.4,30.6,0,-4184,-132,60
1773578775.0446458,21.4,30.6,0,-4184,-132,60
1773578775.0652575,21.4,30.6,0,-4164,-116,44
1773578775.0854661,21.4,30.6,0,-4164,-116,44
1773578775.1056948,21.4,30.6,0,-4172,-128,36
1773578775.126106,21.4,30.6,0,-4172,-128,36
1773578775.146942,21.4,30.6,0,-4172,-128,36
1773578775.1674259,21.4,30.6,0,-4172,-116,88
1773578775.1877472,21.4,30.6,0,-4172,-116,88
1773578775.2081575,21.4,30.6,0,-4172,-116,88
1773578775.2289267,21.4,30.6,0,-4188,-140,16
1773578775.2496727,21.4,30.6,0,-4188,-140,16
1773578775.270275,21.4,30.6,0,-4148,-112,32
1773578775.290874,21.4,30.6,0,-4148,-112,32
1773578775.3116014,21.4,30.6,0,-4148,-112,32
1773578775.332181,21.4,30.6,0,-4204,-128,44
1773578775.3526483,21.4,30.6,0,-4204,-128,44
1773578775.373364,21.4,30.6,0,-4184,-144,92
1773578775.3937345,21.4,30.6,0,-4184,-144,92
1773578775.4141352,21.4,30.6,0,-4184,-144,92
1773578775.4344032,21.4,30.6,0,-4164,-104,36
1773578775.45498,21.4,30.6,0,-4164,-104,36
1773578775.475383,21.4,30.6,0,-4164,-104,36
1773578775.4959779,21.4,30.6,0,-4200,-148,72
1773578775.516251,21.4,30.6,0,-4200,-148,72
1773578775.5364711,21.4,30.6,0,-4132,-108,52
1773578775.5571837,21.4,30.6,0,-4132,-108,52
1773578775.5780294,21.4,30.6,0,-4132,-108,52
1773578775.5987005,21.4,30.6,0,-4184,-120,76
1773578775.6193504,21.4,30.6,0,-4184,-120,76
1773578775.6398292,21.4,30.6,0,-4172,-108,44
1773578775.6602921,21.4,30.6,0,-4172,-108,44
1773578775.6807077,21.4,30.6,0,-4172,-108,44
1773578775.7013326,21.4,30.6,0,-4172,-100,56
1773578775.7216673,21.4,30.6,0,-4172,-100,56
1773578775.7422047,21.4,30.6,0,-4172,-116,60
1773578775.7625747,21.4,30.6,0,-4172,-116,60
1773578775.7829914,21.4,30.6,0,-4172,-116,60
1773578775.8032591,21.4,30.6,0,-4168,-136,56
1773578775.8237393,21.4,30.6,0,-4168,-136,56
1773578775.8445747,21.4,30.6,0,-4168,-136,56
1773578775.8649251,21.4,30.6,0,-4192,-120,56
1773578775.8854196,21.4,30.6,0,-4192,-120,56
1773578775.9057822,21.4,30.6,0,-4168,-116,36
1773578775.9266045,21.4,30.6,0,-4168,-116,36
1773578775.94759,21.4,30.6,0,-4168,-116,36
1773578775.9682796,21.4,30.6,0,-4168,-116,36
1773578775.9885635,21.4,30.6,0,-4192,-104,48
1773578776.0088007,21.4,30.6,0,-4192,-104,48
1773578776.0294,21.4,30.6,0,-4192,-104,48
1773578776.0498884,21.4,30.6,0,-4168,-120,36
1773578776.0704422,21.4,30.6,0,-4168,-120,36
1773578776.090902,21.4,30.6,0,-4160,-124,68
1773578776.1116228,21.4,30.6,0,-4160,-124,68
1773578776.1318667,21.4,30.6,0,-4160,-124,68
1773578776.152247,21.4,30.6,0,-4164,-120,44
1773578776.172545,21.4,30.6,0,-4164,-120,44
1773578776.193016,21.4,30.6,0,-4160,-108,60
1773578776.2132974,21.4,30.6,0,-4160,-108,60
1773578776.23375,21.4,30.6,0,-4160,-108,60
1773578776.254236,21.4,30.6,0,-4164,-124,64
1773578776.2748208,21.4,30.6,0,-4164,-124,64
1773578776.2954361,21.4,30.6,0,-4164,-124,64
1773578776.3157084,21.4,30.6,0,-4164,-132,56
1773578776.3358734,21.4,30.6,0,-4164,-132,56
1773578776.356318,21.4,30.6,0,-4176,-124,52
1773578776.3767722,21.4,30.6,0,-4176,-124,52
1773578776.3972147,21.4,30.6,0,-4176,-124,52
1773578776.4174337,21.4,30.6,0,-4164,-136,56
1773578776.4386706,21.4,30.6,0,-4164,-136,56
1773578776.4589329,21.4,30.6,0,-4164,-120,64
1773578776.479384,21.4,30.6,0,-4164,-120,64
1773578776.4998481,21.4,30.6,0,-4164,-120,64
1773578776.5207272,21.4,30.6,0,-4176,-108,64
1773578776.5410602,21.4,30.6,0,-4176,-108,64
1773578776.5616078,21.4,30.6,0,-4176,-108,64
1773578776.5823371,21.4,30.6,0,-4156,-88,32
1773578776.6025972,21.4,30.6,0,-4156,-88,32
1773578776.6227944,21.4,30.6,0,-4188,-112,56
1773578776.6436896,21.4,30.6,0,-4188,-112,56
1773578776.664235,21.4,30.6,0,-4188,-112,56
1773578776.6844158,21.4,30.6,0,-4148,-132,36
1773578776.7048333,21.4,30.6,0,-4148,-132,36
1773578776.7253304,21.4,30.6,0,-4188,-120,60
1773578776.7459161,21.4,30.6,0,-4188,-120,60
1773578776.7665396,21.4,30.6,0,-4188,-120,60
1773578776.787002,21.4,30.6,0,-4176,-124,24
1773578776.8077269,21.4,30.6,0,-4176,-124,24
1773578776.8284178,21.4,30.6,0,-4180,-124,64
1773578776.848746,21.4,30.6,0,-4180,-124,64
1773578776.8693023,21.4,30.6,0,-4180,-124,64
1773578776.890135,21.4,30.6,0,-4196,-112,44
1773578776.9105384,21.4,30.6,0,-4196,-112,44
1773578776.931131,21.4,30.6,0,-4196,-112,44
1773578776.9516654,21.4,30.6,0,-4172,-84,60
1773578776.9723346,21.4,30.6,0,-4172,-84,60
1773578776.9930205,21.4,30.6,0,-4180,-124,48
1773578777.0134895,21.4,30.6,0,-4180,-124,48
1773578777.0338933,21.4,30.6,0,-4180,-124,48
1773578777.0542285,21.4,30.6,0,-4188,-124,76
1773578777.0749648,21.4,30.6,0,-4188,-124,76
1773578777.0955484,21.4,30.6,0,-4188,-120,44
1773578777.1161382,21.4,30.6,0,-4188,-120,44
1773578777.136637,21.4,30.6,0,-4188,-120,44
1773578777.1569555,21.4,30.6,0,-4176,-116,56
1773578777.1773565,21.4,30.6,0,-4176,-116,56
1773578777.1979008,21.4,30.6,0,-4176,-116,56
1773578777.2184234,21.4,30.6,0,-4172,-128,48
1773578777.2390203,21.4,30.6,0,-4172,-128,48
1773578777.2596273,21.4,30.6,0,-4192,-104,48
1773578777.2803364,21.4,30.6,0,-4192,-104,48
1773578777.3007946,21.4,30.6,0,-4192,-104,48
1773578777.3211944,21.4,30.6,0,-4168,-128,52
1773578777.3415442,21.4,30.6,0,-4168,-128,52
1773578777.3620818,21.4,30.6,0,-4176,-120,72
1773578777.3826182,21.4,30.6,0,-4176,-120,72
1773578777.4030023,21.4,30.6,0,-4176,-120,72
1773578777.4237072,21.4,30.6,0,-4192,-116,48
1773578777.4443812,21.4,30.6,0,-4192,-116,48
1773578777.4648395,21.4,30.6,0,-4176,-128,36
1773578777.4859025,21.4,30.6,0,-4176,-128,36
1773578777.506662,21.4,30.6,0,-4176,-128,36
1773578777.5272672,21.4,30.6,0,-4172,-132,60
1773578777.5478706,21.4,30.6,0,-4172,-132,60
1773578777.5686238,21.4,30.6,0,-4172,-132,60
1773578777.5890453,21.4,30.6,0,-4176,-116,56
1773578777.6095428,21.4,30.6,0,-4176,-116,56
1773578777.6298797,21.4,30.6,0,-4160,-108,52
1773578777.6505592,21.4,30.6,0,-4160,-108,52
1773578777.671249,21.4,30.6,0,-4160,-108,52
1773578777.6923614,21.4,30.6,0,-4188,-116,64
1773578777.7130492,21.4,30.6,0,-4188,-116,64
1773578777.733409,21.4,30.6,0,-4184,-104,64
1773578777.753903,21.4,30.6,0,-4184,-104,64
1773578777.77476,21.4,30.6,0,-4184,-104,64
1773578777.795432,21.4,30.6,0,-4180,-100,56
1773578777.815944,21.4,30.6,0,-4180,-100,56
1773578777.8363433,21.4,30.6,0,-4200,-104,48
1773578777.8567452,21.4,30.6,0,-4200,-104,48
1773578777.8773038,21.4,30.6,0,-4200,-104,48
1773578777.8979104,21.4,30.6,0,-4180,-120,80
1773578777.9185445,21.4,30.6,0,-4180,-120,80
1773578777.9391534,21.4,30.6,0,-4180,-120,80
1773578777.9595473,21.4,30.6,0,-4164,-124,60
1773578777.9800692,21.4,30.6,0,-4164,-124,60
1773578778.0009184,21.4,30.6,0,-4164,-124,60
1773578778.0213313,21.5,30.6,0,-4176,-104,36
1773578778.0421703,21.5,30.6,0,-4176,-104,36
1773578778.0630486,21.5,30.6,0,-4176,-104,36
1773578778.0833955,21.5,30.6,0,-4184,-88,40
1773578778.1037064,21.5,30.6,0,-4184,-88,40
1773578778.1240458,21.5,30.6,0,-4184,-88,40
1773578778.1444669,21.5,30.6,0,-4184,-116,76
1773578778.164872,21.5,30.6,0,-4184,-116,76
1773578778.185064,21.5,30.6,0,-4172,-120,40
1773578778.2053146,21.5,30.6,0,-4172,-120,40
1773578778.225843,21.5,30.6,0,-4172,-120,40
1773578778.2464852,21.5,30.6,0,-4176,-128,48
1773578778.2671485,21.5,30.6,0,-4176,-128,48
1773578778.287509,21.5,30.6,0,-4176,-104,56
1773578778.308053,21.5,30.6,0,-4176,-104,56
1773578778.328385,21.5,30.6,0,-4176,-104,56
1773578778.3491788,21.5,30.6,0,-4192,-120,48
1773578778.3694327,21.5,30.6,0,-4192,-120,48
1773578778.389915,21.5,30.6,0,-4192,-120,48
1773578778.4107757,21.5,30.6,0,-4180,-112,48
1773578778.4315536,21.5,30.6,0,-4180,-112,48
1773578778.4521477,21.5,30.6,0,-4180,-108,44
1773578778.472639,21.5,30.6,0,-4180,-108,44
1773578778.4932008,21.5,30.6,0,-4180,-108,44
1773578778.5137122,21.5,30.6,0,-4176,-116,60
1773578778.5341356,21.5,30.6,0,-4176,-116,60
1773578778.5548158,21.5,30.6,0,-4180,-104,92
1773578778.5753412,21.5,30.6,0,-4180,-104,92
1773578778.5959897,21.5,30.6,0,-4180,-104,92
1773578778.616742,21.5,30.6,0,-4156,-108,40
1773578778.6379452,21.5,30.6,0,-4156,-108,40
1773578778.6584268,21.5,30.6,0,-4176,-132,64
1773578778.6790805,21.5,30.6,0,-4176,-132,64
1773578778.699476,21.5,30.6,0,-4176,-132,64
1773578778.720457,21.5,30.6,0,-4192,-120,36
1773578778.740957,21.5,30.6,0,-4192,-120,36
1773578778.7613578,21.5,30.6,0,-4192,-120,36
1773578778.7817256,21.5,30.6,0,-4184,-120,44
1773578778.8023484,21.5,30.6,0,-4184,-120,44
1773578778.823055,21.5,30.6,0,-4184,-108,36
1773578778.8435323,21.5,30.6,0,-4184,-108,36
1773578778.8638926,21.5,30.6,0,-4184,-108,36
1773578778.8842995,21.5,30.6,0,-4180,-120,60
1773578778.9046524,21.5,30.6,0,-4180,-120,60
1773578778.9252644,21.5,30.6,0,-4176,-104,64
1773578778.9458299,21.5,30.6,0,-4176,-104,64
1773578778.9666069,21.5,30.6,0,-4176,-104,64
1773578778.9872246,21.5,30.6,0,-4164,-112,40
1773578779.00773,21.5,30.6,0,-4164,-112,40
1773578779.0283408,21.5,30.6,0,-4160,-104,52
1773578779.0488496,21.5,30.6,0,-4160,-104,52
1773578779.0693748,21.5,30.6,0,-4160,-104,52
1773578779.089883,21.5,30.6,0,-4180,-132,52
1773578779.1105785,21.5,30.6,0,-4180,-132,52
1773578779.1313148,21.5,30.6,0,-4180,-132,52
1773578779.1515677,21.5,30.6,0,-4200,-112,44
1773578779.1719882,21.5,30.6,0,-4200,-112,44
1773578779.1925006,21.5,30.6,0,-4164,-120,60
1773578779.2129161,21.5,30.6,0,-4164,-120,60
1773578779.2335856,21.5,30.6,0,-4164,-120,60
1773578779.2542357,21.5,30.6,0,-4164,-136,52
1773578779.274614,21.5,30.6,0,-4164,-136,52
1773578779.2950351,21.5,30.6,0,-4168,-124,44
1773578779.3154664,21.5,30.6,0,-4168,-124,44
1773578779.3358161,21.5,30.6,0,-4168,-124,44
1773578779.3566003,21.5,30.6,0,-4176,-104,48
1773578779.376964,21.5,30.6,0,-4176,-104,48
1773578779.397173,21.5,30.6,0,-4176,-104,48
1773578779.4188504,21.5,30.6,0,-4184,-124,48
1773578779.439564,21.5,30.6,0,-4184,-124,48
1773578779.46034,21.5,30.6,0,-4168,-92,60
1773578779.4808986,21.5,30.6,0,-4168,-92,60
1773578779.5011823,21.5,30.6,0,-4168,-92,60
1773578779.5215056,21.5,30.6,0,-4184,-104,36
1773578779.5419323,21.5,30.6,0,-4184,-104,36
1773578779.5624664,21.5,30.6,0,-4156,-124,56
1773578779.5828085,21.5,30.6,0,-4156,-124,56
1773578779.6033719,21.5,30.6,0,-4156,-124,56
1773578779.6238632,21.5,30.6,0,-4184,-108,52
1773578779.6443765,21.5,30.6,0,-4184,-108,52
1773578779.6649415,21.5,30.6,0,-4180,-116,44
1773578779.6855862,21.5,30.6,0,-4180,-116,44
1773578779.7061949,21.5,30.6,0,-4180,-116,44
1773578779.7267575,21.5,30.6,0,-4176,-136,44
1773578779.7474532,21.5,30.6,0,-4176,-136,44
1773578779.769126,21.5,30.6,0,-4176,-136,44
1773578779.7897956,21.5,30.6,0,-4180,-116,56
1773578779.8103454,21.5,30.6,0,-4180,-116,56
1773578779.8310347,21.5,30.6,0,-4172,-120,52
1773578779.8520768,21.5,30.6,0,-4172,-120,52
1773578779.8727553,21.5,30.6,0,-4172,-120,52
1773578779.8932576,21.5,30.6,0,-4168,-108,56
1773578779.9135332,21.5,30.6,0,-4168,-108,56
1773578779.9341042,21.5,30.6,0,-4160,-116,48
1773578779.9545035,21.5,30.6,0,-4160,-116,48
1773578779.9750047,21.5,30.6,0,-4160,-116,48
1773578779.9954796,21.5,30.6,0,-4172,-96,56
1773578780.0158992,21.5,30.6,0,-4172,-96,56
1773578780.036596,21.5,30.6,0,-4172,-96,56
1773578780.0570796,21.5,30.6,0,-4172,-96,56
1773578780.0776856,21.4,30.5,0,-4172,-112,64
1773578780.0980585,21.4,30.5,0,-4172,-112,64
1773578780.118614,21.4,30.5,0,-4172,-128,48
1773578780.1391745,21.4,30.5,0,-4172,-128,48
1773578780.1596227,21.4,30.5,0,-4172,-128,48
1773578780.180162,21.4,30.5,0,-4176,-132,72
1773578780.2021902,21.4,30.5,0,-4176,-132,72
1773578780.222844,21.4,30.5,0,-4168,-120,36
1773578780.2435694,21.4,30.5,0,-4168,-120,36
1773578780.2639604,21.4,30.5,0,-4168,-120,36
1773578780.2842276,21.4,30.5,0,-4172,-124,56
1773578780.3049982,21.4,30.5,0,-4172,-124,56
1773578780.3255966,21.4,30.5,0,-4172,-124,56
1773578780.3462985,21.4,30.5,0,-4148,-104,68
1773578780.3670626,21.4,30.5,0,-4148,-104,68
1773578780.387677,21.4,30.5,0,-4172,-112,44
1773578780.4084747,21.4,30.5,0,-4172,-112,44
1773578780.4287372,21.4,30.5,0,-4172,-112,44
1773578780.4491103,21.4,30.5,0,-4180,-104,68
1773578780.4695964,21.4,30.5,0,-4180,-104,68
1773578780.4902604,21.4,30.5,0,-4172,-108,64
1773578780.5105975,21.4,30.5,0,-4172,-108,64
1773578780.531299,21.4,30.5,0,-4172,-108,64
1773578780.5521786,21.4,30.5,0,-4184,-104,32
1773578780.5727131,21.4,30.5,0,-4184,-104,32
1773578780.5929825,21.4,30.5,0,-4172,-96,40
1773578780.6135623,21.4,30.5,0,-4172,-96,40
1773578780.6342525,21.4,30.5,0,-4172,-96,40
1773578780.654679,21.4,30.5,0,-4168,-96,60
1773578780.6750402,21.4,30.5,0,-4168,-96,60
1773578780.6956096,21.4,30.5,0,-4168,-96,60
1773578780.7159698,21.4,30.5,0,-4176,-108,56
1773578780.7361417,21.4,30.5,0,-4176,-108,56
1773578780.7567854,21.4,30.5,0,-4184,-136,52
1773578780.777499,21.4,30.5,0,-4184,-136,52
1773578780.7979994,21.4,30.5,0,-4184,-136,52
1773578780.8182254,21.4,30.5,0,-4184,-104,60
1773578780.8387754,21.4,30.5,0,-4184,-104,60
1773578780.8594558,21.4,30.5,0,-4180,-136,44
1773578780.8800275,21.4,30.5,0,-4180,-136,44
1773578780.9005532,21.4,30.5,0,-4180,-136,44
1773578780.9210892,21.4,30.5,0,-4180,-124,56
1773578780.9415476,21.4,30.5,0,-4180,-124,56
1773578780.9620812,21.4,30.5,0,-4180,-124,56
1773578780.983222,21.4,30.5,0,-4172,-124,36
1773578781.0038354,21.4,30.5,0,-4172,-124,36
1773578781.0243576,21.4,30.5,0,-4160,-116,64
1773578781.0450997,21.4,30.5,0,-4160,-116,64
1773578781.065767,21.4,30.5,0,-4160,-116,64
1773578781.086757,21.4,30.5,0,-4176,-116,52
1773578781.107464,21.4,30.5,0,-4176,-116,52
1773578781.12774,21.4,30.5,0,-4192,-120,32
1773578781.1483335,21.4,30.5,0,-4192,-120,32
1773578781.168763,21.4,30.5,0,-4192,-120,32
1773578781.1890812,21.4,30.5,0,-4172,-128,48
1773578781.209552,21.4,30.5,0,-4172,-128,48
1773578781.2298994,21.4,30.5,0,-4164,-124,52
1773578781.250619,21.4,30.5,0,-4164,-124,52
1773578781.2708974,21.4,30.5,0,-4164,-124,52
1773578781.2914824,21.4,30.5,0,-4188,-108,64
1773578781.3121357,21.4,30.5,0,-4188,-108,64
1773578781.3325686,21.4,30.5,0,-4188,-108,64
1773578781.3532364,21.4,30.5,0,-4188,-96,52
1773578781.3740735,21.4,30.5,0,-4188,-96,52
1773578781.3947732,21.4,30.5,0,-4188,-148,48
1773578781.4154518,21.4,30.5,0,-4188,-148,48
1773578781.4361925,21.4,30.5,0,-4188,-148,48
1773578781.4564898,21.4,30.5,0,-4160,-96,36
1773578781.476863,21.4,30.5,0,-4160,-96,36
1773578781.4971259,21.4,30.5,0,-4168,-92,52
1773578781.5186517,21.4,30.5,0,-4168,-92,52
1773578781.5390332,21.4,30.5,0,-4168,-92,52
1773578781.5596588,21.4,30.5,0,-4156,-120,60
1773578781.5799358,21.4,30.5,0,-4156,-120,60
1773578781.600189,21.4,30.5,0,-4192,-140,68
1773578781.6206238,21.4,30.5,0,-4192,-140,68
1773578781.6411712,21.4,30.5,0,-4192,-140,68
1773578781.6616197,21.4,30.5,0,-4196,-116,36
1773578781.6823027,21.4,30.5,0,-4196,-116,36
1773578781.7028415,21.4,30.5,0,-4196,-116,36
1773578781.7233465,21.4,30.5,0,-4172,-128,52
1773578781.744146,21.4,30.5,0,-4172,-128,52
1773578781.7655692,21.4,30.5,0,-4180,-112,56
1773578781.7863617,21.4,30.5,0,-4180,-112,56
1773578781.8072562,21.4,30.5,0,-4180,-112,56
1773578781.8279493,21.4,30.5,0,-4176,-104,60
1773578781.848857,21.4,30.5,0,-4176,-104,60
1773578781.8693604,21.4,30.5,0,-4188,-116,52
1773578781.890003,21.4,30.5,0,-4188,-116,52
1773578781.9105818,21.4,30.5,0,-4188,-116,52
1773578781.9309468,21.4,30.5,0,-4172,-120,80
1773578781.9515972,21.4,30.5,0,-4172,-120,80
1773578781.9719322,21.4,30.5,0,-4180,-108,52
1773578781.9923954,21.4,30.5,0,-4180,-108,52
1773578782.0127027,21.4,30.5,0,-4180,-108,52
1773578782.0333126,21.4,30.5,0,-4180,-112,56
1773578782.05374,21.4,30.5,0,-4180,-112,56
1773578782.0744085,21.4,30.5,0,-4180,-112,56
1773578782.0950181,21.4,30.5,0,-4180,-112,56
1773578782.115433,21.4,30.5,0,-4180,-92,20
1773578782.1357412,21.4,30.5,0,-4180,-92,20
1773578782.15603,21.4,30.5,0,-4152,-124,60
1773578782.1762397,21.4,30.5,0,-4152,-124,60
1773578782.1968725,21.4,30.5,0,-4152,-124,60
1773578782.2174134,21.4,30.5,0,-4160,-132,60
1773578782.2386093,21.4,30.5,0,-4160,-132,60
1773578782.2596698,21.4,30.5,0,-4160,-132,60
1773578782.2813387,21.4,30.5,0,-4156,-124,60
1773578782.3019197,21.4,30.5,0,-4156,-124,60
1773578782.322487,21.4,30.5,0,-4172,-128,64
1773578782.3431413,21.4,30.5,0,-4172,-128,64
1773578782.363796,21.4,30.5,0,-4172,-128,64
1773578782.3844132,21.4,30.5,0,-4172,-128,64
1773578782.4048402,21.4,30.5,0,-4172,-128,64
1773578782.4253132,21.4,30.5,0,-4164,-116,68
1773578782.4459403,21.4,30.5,0,-4164,-116,68
1773578782.46648,21.4,30.5,0,-4164,-116,68
1773578782.486853,21.4,30.5,0,-4156,-108,44
1773578782.5074277,21.4,30.5,0,-4156,-108,44
1773578782.5281124,21.4,30.5,0,-4176,-100,56
1773578782.549106,21.4,30.5,0,-4176,-100,56
1773578782.5693746,21.4,30.5,0,-4176,-100,56
1773578782.5895653,21.4,30.5,0,-4176,-128,76
1773578782.6100938,21.4,30.5,0,-4176,-128,76
1773578782.6309524,21.4,30.5,0,-4176,-128,76
1773578782.6517851,21.4,30.5,0,-4176,-112,44
1773578782.6723037,21.4,30.5,0,-4176,-112,44
1773578782.6930633,21.4,30.5,0,-4172,-124,64
1773578782.7138395,21.4,30.5,0,-4172,-124,64
1773578782.73514,21.4,30.5,0,-4172,-124,64
1773578782.7558463,21.4,30.5,0,-4164,-112,60
1773578782.7764852,21.4,30.5,0,-4164,-112,60
1773578782.7980874,21.4,30.5,0,-4184,-124,48
1773578782.818998,21.4,30.5,0,-4184,-124,48
1773578782.8394072,21.4,30.5,0,-4184,-124,48
1773578782.8600235,21.4,30.5,0,-4176,-124,64
1773578782.880718,21.4,30.5,0,-4176,-124,64
1773578782.9023793,21.4,30.5,0,-4180,-108,72
1773578782.9227457,21.4,30.5,0,-4180,-108,72
1773578782.9433954,21.4,30.5,0,-4180,-108,72
1773578782.9637032,21.4,30.5,0,-4184,-108,60
1773578782.9859464,21.4,30.5,0,-4184,-108,60
1773578783.0064647,21.4,30.5,0,-4168,-104,52
1773578783.027311,21.4,30.5,0,-4168,-104,52
1773578783.047872,21.4,30.5,0,-4168,-104,52
1773578783.0683925,21.4,30.5,0,-4200,-120,40
1773578783.0890791,21.4,30.5,0,-4200,-120,40
1773578783.109638,21.4,30.5,0,-4200,-120,40
1773578783.1303174,21.4,30.5,0,-4168,-124,44
1773578783.1508498,21.4,30.5,0,-4168,-124,44
1773578783.1715837,21.4,30.5,0,-4176,-132,56
1773578783.1918862,21.4,30.5,0,-4176,-132,56
1773578783.2124577,21.4,30.5,0,-4176,-132,56
1773578783.2330697,21.4,30.5,0,-4176,-124,36
1773578783.2534907,21.4,30.5,0,-4176,-124,36
1773578783.2737882,21.4,30.5,0,-4160,-112,52
1773578783.2942176,21.4,30.5,0,-4160,-112,52
1773578783.314833,21.4,30.5,0,-4160,-112,52
1773578783.3354924,21.4,30.5,0,-4192,-120,48
1773578783.355923,21.4,30.5,0,-4192,-120,48
1773578783.3765583,21.4,30.5,0,-4192,-112,44
1773578783.3969166,21.4,30.5,0,-4192,-112,44
1773578783.4177377,21.4,30.5,0,-4192,-112,44
1773578783.438106,21.4,30.5,0,-4164,-120,36
1773578783.4584582,21.4,30.5,0,-4164,-120,36
1773578783.4788544,21.4,30.5,0,-4164,-120,36
1773578783.4996655,21.4,30.5,0,-4196,-120,52
1773578783.520443,21.4,30.5,0,-4196,-120,52
1773578783.5407836,21.4,30.5,0,-4164,-112,48
1773578783.5613606,21.4,30.5,0,-4164,-112,48
1773578783.5819132,21.4,30.5,0,-4164,-112,48
1773578783.6021194,21.4,30.5,0,-4172,-132,52
1773578783.6227787,21.4,30.5,0,-4172,-132,52
1773578783.6436696,21.4,30.5,0,-4176,-128,48
1773578783.6642056,21.4,30.5,0,-4176,-128,48
1773578783.68524,21.4,30.5,0,-4176,-128,48
1773578783.7058861,21.4,30.5,0,-4164,-104,48
1773578783.7261481,21.4,30.5,0,-4164,-104,48
1773578783.7464762,21.4,30.5,0,-4164,-104,48
1773578783.7668574,21.4,30.5,0,-4180,-116,56
1773578783.7877278,21.4,30.5,0,-4180,-116,56
1773578783.8083003,21.4,30.5,0,-4184,-120,52
1773578783.8288753,21.4,30.5,0,-4184,-120,52
1773578783.8490636,21.4,30.5,0,-4184,-120,52
1773578783.869332,21.4,30.5,0,-4172,-108,48
1773578783.8898895,21.4,30.5,0,-4172,-108,48
1773578783.9102201,21.4,30.5,0,-4176,-112,56
1773578783.9305239,21.4,30.5,0,-4176,-112,56
1773578783.9520578,21.4,30.5,0,-4176,-112,56
1773578783.9723341,21.4,30.5,0,-4184,-104,44
1773578783.9925508,21.4,30.5,0,-4184,-104,44
1773578784.0130856,21.4,30.5,0,-4184,-104,44
1773578784.0338233,21.4,30.5,0,-4180,-116,40
1773578784.0544188,21.4,30.5,0,-4180,-116,40
1773578784.0746236,21.4,30.5,0,-4164,-104,60
1773578784.095061,21.4,30.5,0,-4164,-104,60
1773578784.1157737,21.4,30.5,0,-4164,-104,60
1773578784.1359737,21.4,30.5,0,-4164,-104,60
1773578784.1566904,21.4,30.5,0,-4180,-120,80
1773578784.1770008,21.4,30.5,0,-4180,-120,80
1773578784.197346,21.4,30.5,0,-4184,-128,52
1773578784.218237,21.4,30.5,0,-4184,-128,52
1773578784.2389665,21.4,30.5,0,-4184,-128,52
1773578784.259222,21.4,30.5,0,-4188,-128,56
1773578784.2793908,21.4,30.5,0,-4188,-128,56
1773578784.2997544,21.4,30.5,0,-4188,-128,56
1773578784.3200464,21.4,30.5,0,-4172,-100,56
1773578784.340647,21.4,30.5,0,-4172,-100,56
1773578784.360963,21.4,30.5,0,-4192,-124,44
1773578784.3816304,21.4,30.5,0,-4192,-124,44
1773578784.4025233,21.4,30.5,0,-4192,-124,44
1773578784.4234173,21.4,30.5,0,-4168,-120,76
1773578784.4437225,21.4,30.5,0,-4168,-120,76
1773578784.4640791,21.4,30.5,0,-4184,-124,36
1773578784.4845521,21.4,30.5,0,-4184,-124,36
1773578784.5049915,21.4,30.5,0,-4184,-124,36
1773578784.5254896,21.4,30.5,0,-4172,-116,56
1773578784.5461237,21.4,30.5,0,-4172,-116,56
1773578784.566565,21.4,30.5,0,-4172,-116,56
1773578784.587434,21.4,30.5,0,-4192,-120,56
1773578784.6078212,21.4,30.5,0,-4192,-120,56
1773578784.6282885,21.4,30.5,0,-4168,-112,48
1773578784.6488144,21.4,30.5,0,-4168,-112,48
1773578784.6695702,21.4,30.5,0,-4168,-112,48
1773578784.689871,21.4,30.5,0,-4192,-136,56
1773578784.7102273,21.4,30.5,0,-4192,-136,56
1773578784.7308745,21.4,30.5,0,-4180,-124,56
1773578784.7518394,21.4,30.5,0,-4180,-124,56
1773578784.7727282,21.4,30.5,0,-4180,-124,56
1773578784.793328,21.4,30.5,0,-4184,-116,40
1773578784.8140337,21.4,30.5,0,-4184,-116,40
1773578784.8353965,21.4,30.5,0,-4168,-100,48
1773578784.8558598,21.4,30.5,0,-4168,-100,48
1773578784.8766556,21.4,30.5,0,-4168,-100,48
1773578784.8974319,21.4,30.5,0,-4196,-124,56
1773578784.919036,21.4,30.5,0,-4196,-124,56
1773578784.9394042,21.4,30.5,0,-4196,-124,56
1773578784.959921,21.4,30.5,0,-4180,-112,64
1773578784.9803402,21.4,30.5,0,-4180,-112,64
1773578785.000961,21.4,30.5,0,-4004,-44,140
1773578785.0212147,21.4,30.5,0,-4004,-44,140
1773578785.0418303,21.4,30.5,0,-4004,-44,140
1773578785.0621202,21.4,30.5,0,-4196,-120,40
1773578785.0826905,21.4,30.5,0,-4196,-120,40
1773578785.103308,21.4,30.5,0,-4140,-52,48
1773578785.1236303,21.4,30.5,0,-4140,-52,48
1773578785.1442008,21.4,30.5,0,-4140,-52,48
1773578785.1647391,21.4,30.5,0,-4156,-32,40
1773578785.1852534,21.4,30.5,0,-4156,-32,40
1773578785.2058506,21.4,30.5,0,-4280,-240,60
1773578785.2262917,21.4,30.5,0,-4280,-240,60
1773578785.2466178,21.4,30.5,0,-4280,-240,60
1773578785.2672052,21.4,30.5,0,-4156,-392,-60
1773578785.2873764,21.4,30.5,0,-4156,-392,-60
1773578785.308097,21.4,30.5,0,-4156,-392,-60
1773578785.3285403,21.4,30.5,0,-4064,-220,-8
1773578785.348692,21.4,30.5,0,-4064,-220,-8
1773578785.3694859,21.4,30.5,0,-4112,-580,-12
1773578785.3898063,21.4,30.5,0,-4112,-580,-12
1773578785.4100857,21.4,30.5,0,-4112,-580,-12
1773578785.4306314,21.4,30.5,0,-4288,44,124
1773578785.4510603,21.4,30.5,0,-4288,44,124
1773578785.4715304,21.4,30.5,0,-4248,244,136
1773578785.4918525,21.4,30.5,0,-4248,244,136
1773578785.5120945,21.4,30.5,0,-4248,244,136
1773578785.5324466,21.4,30.5,0,-4196,-356,0
1773578785.5527859,21.4,30.5,0,-4196,-356,0
1773578785.573099,21.4,30.5,0,-4196,-356,0
1773578785.5937204,21.4,30.5,0,-4184,-204,60
1773578785.614355,21.4,30.5,0,-4184,-204,60
1773578785.6349053,21.4,30.5,0,-4156,68,84
1773578785.6558592,21.4,30.5,0,-4156,68,84
1773578785.6763191,21.4,30.5,0,-4156,68,84
1773578785.6965988,21.4,30.5,0,-4108,-252,36
1773578785.717532,21.4,30.5,0,-4108,-252,36
1773578785.7377098,21.4,30.5,0,-4184,-500,-52
1773578785.7582986,21.4,30.5,0,-4184,-500,-52
1773578785.7787914,21.4,30.5,0,-4184,-500,-52
1773578785.799174,21.4,30.5,0,-4140,-324,24
1773578785.819667,21.4,30.5,0,-4140,-324,24
1773578785.8401744,21.4,30.5,0,-4140,-324,24
1773578785.8609269,21.4,30.5,0,-4172,-416,36
1773578785.8813941,21.4,30.5,0,-4172,-416,36
1773578785.9021423,21.4,30.5,0,-4172,-292,52
1773578785.9224448,21.4,30.5,0,-4172,-292,52
1773578785.943453,21.4,30.5,0,-4172,-292,52
1773578785.9639964,21.4,30.5,0,-4164,-168,120
1773578785.9843795,21.4,30.5,0,-4164,-168,120
1773578786.0047565,21.4,30.5,0,-4128,-152,128
1773578786.025216,21.4,30.5,0,-4128,-152,128
1773578786.045879,21.4,30.5,0,-4128,-152,128
1773578786.066598,21.4,30.5,0,-4180,-176,132
1773578786.0868342,21.4,30.5,0,-4180,-176,132
1773578786.107068,21.4,30.5,0,-4180,-176,132
1773578786.1276095,21.4,30.5,0,-4148,-300,120
1773578786.147813,21.4,30.5,0,-4148,-300,120
1773578786.1685681,21.4,30.5,0,-4148,-300,120
1773578786.1892502,21.4,30.5,0,-4176,-236,140
1773578786.2100813,21.4,30.5,0,-4176,-236,140
1773578786.2304797,21.4,30.5,0,-4176,-236,140
1773578786.2516537,21.4,30.5,0,-4180,-276,136
1773578786.2721143,21.4,30.5,0,-4180,-276,136
1773578786.292442,21.4,30.5,0,-4168,-152,200
1773578786.3130648,21.4,30.5,0,-4168,-152,200
1773578786.3339663,21.4,30.5,0,-4168,-152,200
1773578786.3541732,21.4,30.5,0,-4148,-156,204
1773578786.3755474,21.4,30.5,0,-4148,-156,204
1773578786.395762,21.4,30.5,0,-4148,-156,204
1773578786.4161725,21.4,30.5,0,-4164,-104,200
1773578786.4364944,21.4,30.5,0,-4164,-104,200
1773578786.4569902,21.4,30.5,0,-4180,-56,220
1773578786.4774582,21.4,30.5,0,-4180,-56,220
1773578786.497956,21.4,30.5,0,-4180,-56,220
1773578786.5186725,21.4,30.5,0,-4188,-20,244
1773578786.5391355,21.4,30.5,0,-4188,-20,244
1773578786.5599763,21.4,30.5,0,-4208,40,240
1773578786.5802386,21.4,30.5,0,-4208,40,240
1773578786.6007586,21.4,30.5,0,-4208,40,240
1773578786.6212173,21.4,30.5,0,-4200,212,240
1773578786.6416097,21.4,30.5,0,-4200,212,240
1773578786.661904,21.4,30.5,0,-4200,212,240
1773578786.6823714,21.4,30.5,0,-4192,372,304
1773578786.702574,21.4,30.5,0,-4192,372,304
1773578786.7229824,21.4,30.5,0,-4204,664,312
1773578786.7433896,21.4,30.5,0,-4204,664,312
1773578786.7639294,21.4,30.5,0,-4204,664,312
1773578786.7854905,21.4,30.5,0,-4204,656,268
1773578786.8062687,21.4,30.5,0,-4204,656,268
1773578786.8267972,21.4,30.5,0,-4180,484,264
1773578786.8471725,21.4,30.5,0,-4180,484,264
1773578786.8677666,21.4,30.5,0,-4180,484,264
1773578786.8882616,21.4,30.5,0,-4192,348,248
1773578786.90862,21.4,30.5,0,-4192,348,248
1773578786.9289215,21.4,30.5,0,-4192,348,248
1773578786.9494727,21.4,30.5,0,-4204,296,252
1773578786.9704487,21.4,30.5,0,-4204,296,252
1773578786.9910376,21.4,30.5,0,-4204,208,244
1773578787.0116055,21.4,30.5,0,-4204,208,244
1773578787.0319512,21.4,30.5,0,-4204,208,244
1773578787.052498,21.4,30.5,0,-4184,124,288
1773578787.0730476,21.4,30.5,0,-4184,124,288
1773578787.0936563,21.4,30.5,0,-4168,32,252
1773578787.1142244,21.4,30.5,0,-4168,32,252
1773578787.1355417,21.4,30.5,0,-4168,32,252
1773578787.1564612,21.4,30.5,0,-4180,-64,232
1773578787.1770117,21.4,30.5,0,-4180,-64,232
1773578787.197477,21.4,30.5,0,-4140,-112,212
1773578787.2187104,21.4,30.5,0,-4140,-112,212
1773578787.2392118,21.4,30.5,0,-4140,-112,212
1773578787.259704,21.4,30.5,0,-4168,-144,240
1773578787.2801673,21.4,30.5,0,-4168,-144,240
1773578787.3013866,21.4,30.5,0,-4136,-224,200
1773578787.3216858,21.4,30.5,0,-4136,-224,200
1773578787.3421123,21.4,30.5,0,-4136,-224,200
1773578787.3627808,21.4,30.5,0,-4192,-364,132
1773578787.3832164,21.4,30.5,0,-4192,-364,132
1773578787.4037066,21.4,30.5,0,-4192,-364,132
1773578787.4244316,21.4,30.5,0,-4148,-384,88
1773578787.444868,21.4,30.5,0,-4148,-384,88
1773578787.4656596,21.4,30.5,0,-4152,-352,80
1773578787.4859827,21.4,30.5,0,-4152,-352,80
1773578787.5063233,21.4,30.5,0,-4152,-352,80
1773578787.5270145,21.4,30.5,0,-4168,-196,100
1773578787.5472624,21.4,30.5,0,-4168,-196,100
1773578787.5690832,21.4,30.5,0,-4152,-180,96
1773578787.589667,21.4,30.5,0,-4152,-180,96
1773578787.6099718,21.4,30.5,0,-4152,-180,96
1773578787.6306338,21.4,30.5,0,-4180,-104,128
1773578787.651526,21.4,30.5,0,-4180,-104,128
1773578787.6720626,21.4,30.5,0,-4180,-104,128
1773578787.6928947,21.4,30.5,0,-4204,-128,172
1773578787.7133927,21.4,30.5,0,-4204,-128,172
1773578787.7337222,21.4,30.5,0,-4132,-232,80
1773578787.754102,21.4,30.5,0,-4132,-232,80
1773578787.7744932,21.4,30.5,0,-4132,-232,80
1773578787.7950008,21.4,30.5,0,-4096,-292,112
1773578787.815291,21.4,30.5,0,-4096,-292,112
1773578787.8363614,21.4,30.5,0,-4180,-108,96
1773578787.857096,21.4,30.5,0,-4180,-108,96
1773578787.8777015,21.4,30.5,0,-4180,-108,96
1773578787.897929,21.4,30.5,0,-4164,-44,136
1773578787.9183056,21.4,30.5,0,-4164,-44,136
1773578787.938927,21.4,30.5,0,-4172,-32,212
1773578787.9593198,21.4,30.5,0,-4172,-32,212
1773578787.980006,21.4,30.5,0,-4172,-32,212
1773578788.000417,21.4,30.5,0,-4148,-1780,364
1773578788.0210485,21.4,30.5,0,-4148,-1780,364
1773578788.0421016,21.4,30.5,0,-4148,-1780,364
1773578788.0627391,21.4,30.5,0,-4584,128,-676
1773578788.0832422,21.4,30.5,0,-4584,128,-676
1773578788.1033762,21.4,30.5,0,-4240,-404,-184
1773578788.1244516,21.4,30.5,0,-4240,-404,-184
1773578788.145994,21.4,30.5,0,-4240,-404,-184
1773578788.1666183,21.4,30.5,0,-4236,-196,-96
1773578788.1868875,21.4,30.5,0,-4236,-196,-96
1773578788.2075334,21.4,30.5,0,-4236,-196,-96
1773578788.2281961,21.4,30.5,0,-4236,-196,-96
1773578788.2485764,21.4,30.5,0,-4184,-144,64
1773578788.2691267,21.4,30.5,0,-4184,-144,64
1773578788.2895453,21.4,30.5,0,-4156,-96,16
1773578788.3104615,21.4,30.5,0,-4156,-96,16
1773578788.3310359,21.4,30.5,0,-4156,-96,16
1773578788.352421,21.4,30.5,0,-4164,-164,68
1773578788.3727672,21.4,30.5,0,-4164,-164,68
1773578788.3931453,21.4,30.5,0,-4192,-60,20
1773578788.4138224,21.4,30.5,0,-4192,-60,20
1773578788.4344213,21.4,30.5,0,-4192,-60,20
1773578788.4549224,21.4,30.5,0,-4160,-60,36
1773578788.4755666,21.4,30.5,0,-4160,-60,36
1773578788.4961731,21.4,30.5,0,-4168,-140,44
1773578788.516483,21.4,30.5,0,-4168,-140,44
1773578788.5371587,21.4,30.5,0,-4168,-140,44
1773578788.5577848,21.4,30.5,0,-4172,-64,40
1773578788.578462,21.4,30.5,0,-4172,-64,40
1773578788.5991154,21.4,30.5,0,-4172,-64,40
1773578788.6194305,21.4,30.5,0,-4148,-92,52
1773578788.6397362,21.4,30.5,0,-4148,-92,52
1773578788.6603997,21.4,30.5,0,-4152,-116,60
1773578788.680983,21.4,30.5,0,-4152,-116,60
1773578788.7020736,21.4,30.5,0,-4152,-116,60
1773578788.7225766,21.4,30.5,0,-4172,-100,56
1773578788.7431116,21.4,30.5,0,-4172,-100,56
1773578788.763503,21.4,30.5,0,-4260,-76,76
1773578788.783935,21.4,30.5,0,-4260,-76,76
1773578788.8047001,21.4,30.5,0,-4260,-76,76
1773578788.8251376,21.4,30.5,0,-4168,-104,88
1773578788.8454518,21.4,30.5,0,-4168,-104,88
1773578788.866017,21.4,30.5,0,-4176,-88,48
1773578788.8865948,21.4,30.5,0,-4176,-88,48
1773578788.9069936,21.4,30.5,0,-4176,-88,48
1773578788.9273667,21.4,30.5,0,-4156,-100,76
1773578788.948064,21.4,30.5,0,-4156,-100,76
1773578788.9693089,21.4,30.5,0,-4156,-100,76
1773578788.9896193,21.4,30.5,0,-4176,-108,48
1773578789.0100708,21.4,30.5,0,-4176,-108,48
1773578789.0304053,21.4,30.5,0,-4168,-112,52
1773578789.051152,21.4,30.5,0,-4168,-112,52
1773578789.0716276,21.4,30.5,0,-4168,-112,52
1773578789.0919442,21.4,30.5,0,-4184,-120,24
1773578789.1122158,21.4,30.5,0,-4184,-120,24
1773578789.1327457,21.4,30.5,0,-4180,-88,72
1773578789.1533408,21.4,30.5,0,-4180,-88,72
1773578789.173883,21.4,30.5,0,-4180,-88,72
1773578789.1944704,21.4,30.5,0,-4160,-88,52
1773578789.2194712,21.4,30.5,0,-4160,-88,52
1773578789.2399566,21.4,30.5,0,-4180,-100,52
1773578789.2606533,21.4,30.5,0,-4180,-100,52
1773578789.2812216,21.4,30.5,0,-4180,-100,52
1773578789.301998,21.4,30.5,0,-4184,-112,56
1773578789.3228002,21.4,30.5,0,-4184,-112,56
1773578789.3430607,21.4,30.5,0,-4172,-76,80
1773578789.3634462,21.4,30.5,0,-4172,-76,80
1773578789.3837936,21.4,30.5,0,-4172,-76,80
1773578789.4044104,21.4,30.5,0,-4184,-84,76
1773578789.4249582,21.4,30.5,0,-4184,-84,76
1773578789.4453719,21.4,30.5,0,-4184,-84,76
1773578789.4657066,21.4,30.5,0,-4156,-96,60
1773578789.4861507,21.4,30.5,0,-4156,-96,60
1773578789.5067942,21.4,30.5,0,-4180,-100,44
1773578789.5273938,21.4,30.5,0,-4180,-100,44
1773578789.5482452,21.4,30.5,0,-4180,-100,44
1773578789.5684302,21.4,30.5,0,-4196,-108,52
1773578789.5887623,21.4,30.5,0,-4196,-108,52
1773578789.6092532,21.4,30.5,0,-4180,-108,72
1773578789.629865,21.4,30.5,0,-4180,-108,72
1773578789.650232,21.4,30.5,0,-4180,-108,72
1773578789.670696,21.4,30.5,0,-4184,-108,64
1773578789.691362,21.4,30.5,0,-4184,-108,64
1773578789.7118027,21.4,30.5,0,-4184,-108,64
1773578789.7322125,21.4,30.5,0,-4192,-88,60
1773578789.7534707,21.4,30.5,0,-4192,-88,60
1773578789.7742255,21.4,30.5,0,-4172,-104,44
1773578789.7945435,21.4,30.5,0,-4172,-104,44
1773578789.815109,21.4,30.5,0,-4172,-104,44
1773578789.8358767,21.4,30.5,0,-4164,-108,68
1773578789.8565707,21.4,30.5,0,-4164,-108,68
1773578789.876993,21.4,30.5,0,-4180,-124,60
1773578789.8978868,21.4,30.5,0,-4180,-124,60
1773578789.9191792,21.4,30.5,0,-4180,-124,60
1773578789.9400647,21.4,30.5,0,-4168,-92,64
1773578789.9612358,21.4,30.5,0,-4168,-92,64
1773578789.9817092,21.4,30.5,0,-4180,-100,36
1773578790.002055,21.4,30.5,0,-4180,-100,36
1773578790.022734,21.4,30.5,0,-4180,-100,36
1773578790.043038,21.4,30.5,0,-4184,-116,60
1773578790.063989,21.4,30.5,0,-4184,-116,60
1773578790.0853508,21.4,30.5,0,-4184,-116,60
1773578790.1057963,21.4,30.5,0,-4192,-116,60
1773578790.1261947,21.4,30.5,0,-4192,-116,60
1773578790.1471086,21.4,30.5,0,-4184,-76,64
1773578790.1694858,21.4,30.5,0,-4184,-76,64
1773578790.1901405,21.4,30.5,0,-4184,-76,64
1773578790.2108974,21.4,30.5,0,-4164,-108,44
1773578790.232053,21.4,30.5,0,-4164,-108,44
1773578790.2527635,21.4,30.5,0,-4164,-108,44
1773578790.27332,21.4,30.4,0,-4172,-104,64
1773578790.2942698,21.4,30.4,0,-4172,-104,64
1773578790.3150609,21.4,30.4,0,-4172,-104,64
1773578790.3361063,21.4,30.4,0,-4180,-68,56
1773578790.356778,21.4,30.4,0,-4180,-68,56
1773578790.3775585,21.4,30.4,0,-4176,-72,84
1773578790.398134,21.4,30.4,0,-4176,-72,84
1773578790.419702,21.4,30.4,0,-4176,-72,84
1773578790.440447,21.4,30.4,0,-4172,-100,44
1773578790.461141,21.4,30.4,0,-4172,-100,44
1773578790.481809,21.4,30.4,0,-4172,-100,44
1773578790.502797,21.4,30.4,0,-4188,-88,72
1773578790.5234325,21.4,30.4,0,-4188,-88,72
1773578790.5439396,21.4,30.4,0,-4184,-100,72
1773578790.564482,21.4,30.4,0,-4184,-100,72
1773578790.5857244,21.4,30.4,0,-4184,-100,72
1773578790.6069014,21.4,30.4,0,-4164,-108,56
1773578790.6273606,21.4,30.4,0,-4164,-108,56
1773578790.6480174,21.4,30.4,0,-4168,-136,72
1773578790.6689503,21.4,30.4,0,-4168,-136,72
1773578790.6893487,21.4,30.4,0,-4168,-136,72
1773578790.7099695,21.4,30.4,0,-4176,-84,40
1773578790.73104,21.4,30.4,0,-4176,-84,40
1773578790.752165,21.4,30.4,0,-4180,-112,52
1773578790.7728558,21.4,30.4,0,-4180,-112,52
1773578790.79334,21.4,30.4,0,-4180,-112,52
1773578790.8137379,21.4,30.4,0,-4176,-96,52
1773578790.834261,21.4,30.4,0,-4176,-96,52
1773578790.8546386,21.4,30.4,0,-4188,-104,52
1773578790.8749342,21.4,30.4,0,-4188,-104,52
1773578790.895263,21.4,30.4,0,-4188,-104,52
1773578790.9158707,21.4,30.4,0,-4180,-124,68
1773578790.936608,21.4,30.4,0,-4180,-124,68
1773578790.9571364,21.4,30.4,0,-4180,-124,68
1773578790.9777944,21.4,30.4,0,-4188,-84,64
1773578790.9982445,21.4,30.4,0,-4188,-84,64
1773578791.0192351,21.4,30.4,0,-4164,-88,44
1773578791.0396795,21.4,30.4,0,-4164,-88,44
1773578791.0609517,21.4,30.4,0,-4164,-88,44
1773578791.0820374,21.4,30.4,0,-4164,-84,48
1773578791.103058,21.4,30.4,0,-4164,-84,48
1773578791.1240346,21.4,30.4,0,-4192,-116,44
1773578791.1449115,21.4,30.4,0,-4192,-116,44
1773578791.1666224,21.4,30.4,0,-4192,-116,44
1773578791.18725,21.4,30.4,0,-4184,-124,56
1773578791.207932,21.4,30.4,0,-4184,-124,56
1773578791.2291486,21.4,30.4,0,-4184,-172,32
1773578791.2506485,21.4,30.4,0,-4184,-172,32
1773578791.2714534,21.4,30.4,0,-4184,-172,32
1773578791.2922528,21.4,30.4,0,-4204,-216,64
1773578791.3127663,21.4,30.4,0,-4204,-216,64
1773578791.3338625,21.4,30.4,0,-4176,-552,36
1773578791.3547294,21.4,30.4,0,-4176,-552,36
1773578791.3753877,21.4,30.4,0,-4176,-552,36
1773578791.3964639,21.4,30.4,1,-4236,-1716,-1712
1773578791.418846,21.4,30.4,1,-4236,-1716,-1712
1773578791.439286,21.4,30.4,1,-4496,-652,132
1773578791.4600396,21.4,30.4,1,-4496,-652,132
1773578791.4808774,21.4,30.4,1,-4496,-652,132
1773578791.5026462,21.4,30.4,1,-3472,-812,520
1773578791.5232506,21.4,30.4,1,-3472,-812,520
1773578791.543804,21.4,30.4,1,-3472,-812,520
1773578791.5643966,21.4,30.4,1,-4376,12,596
1773578791.5862336,21.4,30.4,1,-4376,12,596
1773578791.6067445,21.4,30.4,1,-3840,92,432
1773578791.6274455,21.4,30.4,1,-3840,92,432
1773578791.648125,21.4,30.4,1,-3840,92,432
1773578791.6687453,21.4,30.4,1,-4260,68,480
1773578791.689341,21.4,30.4,1,-4260,68,480
1773578791.7106314,21.4,30.4,1,-4024,-196,444
1773578791.7323823,21.4,30.4,1,-4024,-196,444
1773578791.7530088,21.4,30.4,1,-4024,-196,444
1773578791.7735004,21.4,30.4,1,-4172,-68,384
1773578791.7940698,21.4,30.4,1,-4172,-68,384
1773578791.8147995,21.4,30.4,1,-4140,-48,332
1773578791.8352518,21.4,30.4,1,-4140,-48,332
1773578791.856084,21.4,30.4,1,-4140,-48,332
1773578791.8767755,21.4,30.4,1,-4140,-12,348
1773578791.8983052,21.4,30.4,1,-4140,-12,348
1773578791.919438,21.4,30.4,1,-4192,4,344
1773578791.9410274,21.4,30.4,1,-4192,4,344
1773578791.9621003,21.4,30.4,1,-4192,4,344
1773578791.982461,21.4,30.4,1,-4128,-60,280
1773578792.0032938,21.4,30.4,1,-4128,-60,280
1773578792.0236518,21.4,30.4,1,-4208,-28,336
1773578792.0443044,21.4,30.4,1,-4208,-28,336
1773578792.0647545,21.4,30.4,1,-4208,-28,336
1773578792.0859387,21.4,30.4,1,-4140,-68,276
1773578792.1061885,21.4,30.4,1,-4140,-68,276
1773578792.126413,21.4,30.4,1,-4140,-68,276
1773578792.1467319,21.4,30.4,1,-4200,-60,268
1773578792.16906,21.4,30.4,1,-4200,-60,268
1773578792.1892745,21.4,30.4,1,-4160,-56,256
1773578792.2100286,21.4,30.4,1,-4160,-56,256
1773578792.2306926,21.4,30.4,1,-4160,-56,256
1773578792.2509696,21.4,30.4,1,-4180,-48,240
1773578792.2713773,21.4,30.4,1,-4180,-48,240
1773578792.2916853,21.4,30.4,1,-4180,-48,240
1773578792.312128,21.4,30.4,1,-4208,-8,236
1773578792.332591,21.4,30.4,1,-4208,-8,236
1773578792.3532119,21.4,30.4,1,-4208,-8,236
1773578792.3735406,21.4,30.4,1,-4124,4,232
1773578792.394122,21.4,30.4,1,-4124,4,232
1773578792.4143438,21.4,30.4,1,-4124,4,232
1773578792.4362729,21.4,30.4,1,-4212,36,244
1773578792.4567149,21.4,30.4,1,-4212,36,244
1773578792.4800713,21.4,30.4,1,-4128,88,228
1773578792.5024188,21.4,30.4,1,-4128,88,228
1773578792.522807,21.4,30.4,1,-4128,88,228
1773578792.5434291,21.4,30.4,1,-4212,128,248
1773578792.5642076,21.4,30.4,1,-4212,128,248
1773578792.5864635,21.4,30.4,1,-4164,140,216
1773578792.6071763,21.4,30.4,1,-4164,140,216
1773578792.6277266,21.4,30.4,1,-4164,140,216
1773578792.649867,21.4,30.4,1,-4196,140,184
1773578792.6704714,21.4,30.4,1,-4196,140,184
1773578792.6911626,21.4,30.4,1,-4180,136,180
1773578792.7121916,21.4,30.4,1,-4180,136,180
1773578792.7326922,21.4,30.4,1,-4180,136,180
1773578792.7531874,21.4,30.4,1,-4184,104,160
1773578792.7737184,21.4,30.4,1,-4184,104,160
1773578792.7945635,21.4,30.4,1,-4168,120,116
1773578792.815421,21.4,30.4,1,-4168,120,116
1773578792.8371797,21.4,30.4,1,-4168,120,116
1773578792.8575773,21.4,30.4,1,-4188,184,156
1773578792.877897,21.4,30.4,1,-4188,184,156
1773578792.899073,21.4,30.4,1,-4184,208,168
1773578792.9199557,21.4,30.4,1,-4184,208,168
1773578792.9405944,21.4,30.4,1,-4184,208,168
1773578792.961765,21.4,30.4,1,-4172,164,176
1773578792.9835744,21.4,30.4,1,-4172,164,176
1773578793.004181,21.4,30.4,1,-4208,140,132
1773578793.0248468,21.4,30.4,1,-4208,140,132
1773578793.0458338,21.4,30.4,1,-4208,140,132
1773578793.0668046,21.4,30.4,1,-4136,132,180
1773578793.0872679,21.4,30.4,1,-4136,132,180
1773578793.107573,21.4,30.4,1,-4136,132,180
1773578793.1292462,21.4,30.4,1,-4204,140,156
1773578793.149894,21.4,30.4,1,-4204,140,156
1773578793.1705647,21.4,30.4,1,-4172,160,184
1773578793.1912718,21.4,30.4,1,-4172,160,184
1773578793.2118733,21.4,30.4,1,-4172,160,184
1773578793.232593,21.4,30.4,1,-4196,136,204
1773578793.2541978,21.4,30.4,1,-4196,136,204
1773578793.2749498,21.4,30.4,1,-4188,140,228
1773578793.2954688,21.4,30.4,1,-4188,140,228
1773578793.316345,21.4,30.4,1,-4188,140,228
1773578793.3369825,21.4,30.4,1,-4204,128,232
1773578793.357311,21.4,30.4,1,-4204,128,232
1773578793.377678,21.4,30.4,1,-4160,132,264
1773578793.398195,21.4,30.4,1,-4160,132,264
1773578793.418623,21.4,30.4,1,-4160,132,264
1773578793.4390998,21.4,30.4,1,-4196,96,268
1773578793.4597328,21.4,30.4,1,-4196,96,268
1773578793.4800127,21.4,30.4,1,-4164,116,312
1773578793.5004172,21.4,30.4,1,-4164,116,312
1773578793.5208545,21.4,30.4,1,-4164,116,312
1773578793.5413196,21.4,30.4,1,-4208,92,336
1773578793.5622032,21.4,30.4,1,-4208,92,336
1773578793.5827181,21.4,30.4,1,-4208,92,336
1773578793.6043892,21.4,30.4,1,-4164,48,332
1773578793.6249988,21.4,30.4,1,-4164,48,332
1773578793.6453102,21.4,30.4,1,-4184,-48,352
1773578793.6662047,21.4,30.4,1,-4184,-48,352
1773578793.6867268,21.4,30.4,1,-4184,-48,352
1773578793.7073581,21.4,30.4,1,-4184,-104,332
1773578793.7276058,21.4,30.4,1,-4184,-104,332
1773578793.7482965,21.4,30.4,1,-4164,-144,320
1773578793.7697797,21.4,30.4,1,-4164,-144,320
1773578793.790499,21.4,30.4,1,-4164,-144,320
1773578793.8108647,21.4,30.4,1,-4196,-168,332
1773578793.8312776,21.4,30.4,1,-4196,-168,332
1773578793.8521461,21.4,30.4,0,-4140,-208,328
1773578793.8730202,21.4,30.4,0,-4140,-208,328
1773578793.8937936,21.4,30.4,0,-4140,-208,328
1773578793.9143355,21.4,30.4,0,-4168,-212,296
1773578793.9359796,21.4,30.4,0,-4168,-212,296
1773578793.9567056,21.4,30.4,0,-4168,-212,296
1773578793.9774477,21.4,30.4,0,-4148,-220,276
1773578793.9979749,21.4,30.4,0,-4148,-220,276
1773578794.0188067,21.4,30.4,0,-4180,-200,308
1773578794.0395384,21.4,30.4,0,-4180,-200,308
1773578794.0600033,21.4,30.4,0,-4180,-200,308
1773578794.080593,21.4,30.4,0,-4200,-148,288
1773578794.1019552,21.4,30.4,0,-4200,-148,288
1773578794.1225634,21.4,30.4,0,-4192,-212,312
1773578794.1429882,21.4,30.4,0,-4192,-212,312
1773578794.1636436,21.4,30.4,0,-4192,-212,312
1773578794.1838431,21.4,30.4,0,-4160,-180,304
1773578794.2044237,21.4,30.4,0,-4160,-180,304
1773578794.2250843,21.4,30.4,0,-4136,-296,244
1773578794.245623,21.4,30.4,0,-4136,-296,244
1773578794.2660549,21.4,30.4,0,-4136,-296,244
1773578794.2865622,21.4,30.4,0,-4172,-224,252
1773578794.30695,21.4,30.4,0,-4172,-224,252
1773578794.3273895,21.4,30.4,0,-4172,-224,252
1773578794.3479939,21.4,30.4,0,-4172,-224,252
1773578794.3698545,21.4,30.5,0,-4116,-396,160
1773578794.3902946,21.4,30.5,0,-4116,-396,160
1773578794.4108264,21.4,30.5,0,-4176,-440,132
1773578794.4311478,21.4,30.5,0,-4176,-440,132
1773578794.4518125,21.4,30.5,0,-4176,-440,132
1773578794.4720705,21.4,30.5,0,-4160,-408,112
1773578794.4925358,21.4,30.5,0,-4160,-408,112
1773578794.512976,21.4,30.5,0,-4160,-408,112
1773578794.5341313,21.4,30.5,0,-4176,-180,168
1773578794.5545754,21.4,30.5,0,-4176,-180,168
1773578794.5756662,21.4,30.5,0,-4600,-2176,428
1773578794.596479,21.4,30.5,0,-4600,-2176,428
1773578794.6189718,21.4,30.5,0,-4600,-2176,428
1773578794.639468,21.4,30.5,0,-4024,-640,480
1773578794.6609163,21.4,30.5,0,-4024,-640,480
1773578794.6819112,21.4,30.5,0,-4028,200,-256
1773578794.7060878,21.4,30.5,0,-4028,200,-256
1773578794.7264123,21.4,30.5,0,-4280,96,108
1773578794.7467287,21.4,30.5,0,-4280,96,108
1773578794.76739,21.4,30.5,0,-4280,96,108
1773578794.7878284,21.4,30.5,0,-4188,-144,60
1773578794.808137,21.4,30.5,0,-4188,-144,60
1773578794.828862,21.4,30.5,0,-4188,-144,60
1773578794.8490453,21.4,30.5,0,-4156,-28,16
1773578794.8696022,21.4,30.5,0,-4156,-28,16
1773578794.8899405,21.4,30.5,0,-4184,-128,64
1773578794.9104815,21.4,30.5,0,-4184,-128,64
1773578794.9307976,21.4,30.5,0,-4184,-128,64
1773578794.9513988,21.4,30.5,0,-4172,-76,100
1773578794.9719815,21.4,30.5,0,-4172,-76,100
1773578794.9921572,21.4,30.5,0,-4192,-52,60
1773578795.0125499,21.4,30.5,0,-4192,-52,60
1773578795.033084,21.4,30.5,0,-4192,-52,60
1773578795.0537832,21.4,30.5,0,-4164,-108,52
1773578795.074635,21.4,30.5,0,-4164,-108,52
1773578795.0950801,21.4,30.5,0,-4164,-108,52
1773578795.11569,21.4,30.5,0,-4164,-96,68
1773578795.1359625,21.4,30.5,0,-4164,-96,68
1773578795.1566179,21.4,30.5,0,-4148,-128,60
1773578795.1775064,21.4,30.5,0,-4148,-128,60
1773578795.198132,21.4,30.5,0,-4148,-128,60
1773578795.2184184,21.4,30.5,0,-4196,-112,48
1773578795.239014,21.4,30.5,0,-4196,-112,48
1773578795.2596831,21.4,30.5,0,-4160,-132,56
1773578795.280368,21.4,30.5,0,-4160,-132,56
1773578795.3009396,21.4,30.5,0,-4160,-132,56
1773578795.3213108,21.4,30.5,0,-4152,-124,40
1773578795.3417957,21.4,30.5,0,-4152,-124,40
1773578795.3625417,21.4,30.5,0,-4152,-124,40
1773578795.3834422,21.4,30.5,0,-4192,-84,48
1773578795.404613,21.4,30.5,0,-4192,-84,48
1773578795.4252195,21.4,30.5,0,-4180,-120,60
1773578795.4460082,21.4,30.5,0,-4180,-120,60
1773578795.4663162,21.4,30.5,0,-4180,-120,60
1773578795.4868577,21.4,30.5,0,-4152,-100,48
1773578795.5075345,21.4,30.5,0,-4152,-100,48
1773578795.5280862,21.4,30.5,0,-4188,-96,44
1773578795.5486813,21.4,30.5,0,-4188,-96,44
1773578795.5705595,21.4,30.5,0,-4188,-96,44
1773578795.5911698,21.4,30.5,0,-4180,-116,60
1773578795.6115239,21.4,30.5,0,-4180,-116,60
1773578795.6323197,21.4,30.5,0,-4192,-100,44
1773578795.6529248,21.4,30.5,0,-4192,-100,44
1773578795.673287,21.4,30.5,0,-4192,-100,44
1773578795.6937547,21.4,30.5,0,-4168,-64,56
1773578795.7144177,21.4,30.5,0,-4168,-64,56
1773578795.73472,21.4,30.5,0,-4176,-108,44
1773578795.7554631,21.4,30.5,0,-4176,-108,44
1773578795.7757807,21.4,30.5,0,-4176,-108,44
1773578795.796245,21.4,30.5,0,-4164,-112,64
1773578795.816711,21.4,30.5,0,-4164,-112,64
1773578795.8369715,21.4,30.5,0,-4164,-112,64
1773578795.8574386,21.4,30.5,0,-4164,-108,52
1773578795.8779376,21.4,30.5,0,-4164,-108,52
1773578795.8982873,21.4,30.5,0,-4184,-80,56
1773578795.9193292,21.4,30.5,0,-4184,-80,56
1773578795.9397933,21.4,30.5,0,-4184,-80,56
1773578795.9604044,21.4,30.5,0,-4180,-84,64
1773578795.9810805,21.4,30.5,0,-4180,-84,64
1773578796.0016108,21.4,30.5,0,-4176,-116,48
1773578796.0220697,21.4,30.5,0,-4176,-116,48
1773578796.042536,21.4,30.5,0,-4176,-116,48
1773578796.0630093,21.4,30.5,0,-4188,-128,48
1773578796.083573,21.4,30.5,0,-4188,-128,48
1773578796.103738,21.4,30.5,0,-4188,-128,48
1773578796.1245725,21.4,30.5,0,-4164,-108,44
1773578796.1451995,21.4,30.5,0,-4164,-108,44
1773578796.1659384,21.4,30.5,0,-4188,-108,48
1773578796.18626,21.4,30.5,0,-4188,-108,48
1773578796.2068405,21.4,30.5,0,-4188,-108,48
1773578796.227189,21.4,30.5,0,-4188,-96,52
1773578796.2475834,21.4,30.5,0,-4188,-96,52
1773578796.268146,21.4,30.5,0,-4180,-116,72
1773578796.2886925,21.4,30.5,0,-4180,-116,72
1773578796.309083,21.4,30.5,0,-4180,-116,72
1773578796.3297784,21.4,30.5,0,-4168,-128,76
1773578796.3504307,21.4,30.5,0,-4168,-128,76
1773578796.370966,21.4,30.5,0,-4168,-128,76
1773578796.3916266,21.4,30.5,0,-4168,-128,76
1773578796.4122899,21.4,30.5,0,-4184,-96,44
1773578796.432855,21.4,30.5,0,-4184,-96,44
1773578796.453057,21.4,30.5,0,-4208,-116,44
1773578796.4737167,21.4,30.5,0,-4208,-116,44
1773578796.4943428,21.4,30.5,0,-4208,-116,44
1773578796.516312,21.4,30.5,0,-4160,-132,60
1773578796.5366237,21.4,30.5,0,-4160,-132,60
1773578796.5567987,21.4,30.5,0,-4168,-104,64
1773578796.5772767,21.4,30.5,0,-4168,-104,64
1773578796.5979528,21.4,30.5,0,-4168,-104,64
1773578796.619176,21.4,30.5,0,-4180,-112,60
1773578796.6397004,21.4,30.5,0,-4180,-112,60
1773578796.660245,21.4,30.5,0,-4180,-112,60
1773578796.680758,21.4,30.5,0,-4188,-84,48
1773578796.7019515,21.4,30.5,0,-4188,-84,48
1773578796.7225287,21.4,30.5,0,-4192,-108,48
1773578796.7431993,21.4,30.5,0,-4192,-108,48
1773578796.7642136,21.4,30.5,0,-4192,-108,48
1773578796.7855382,21.4,30.5,0,-4196,-104,60
1773578796.8062034,21.4,30.5,0,-4196,-104,60
1773578796.8267107,21.4,30.5,0,-4156,-112,44
1773578796.847184,21.4,30.5,0,-4156,-112,44
1773578796.868661,21.4,30.5,0,-4156,-112,44
1773578796.8892372,21.4,30.5,0,-4176,-100,56
1773578796.9097464,21.4,30.5,0,-4176,-100,56
1773578796.9303136,21.4,30.5,0,-4204,-100,40
1773578796.9515893,21.4,30.5,0,-4204,-100,40
1773578796.9723845,21.4,30.5,0,-4204,-100,40
1773578796.992627,21.4,30.5,0,-4204,-124,60
1773578797.0132442,21.4,30.5,0,-4204,-124,60
1773578797.0338597,21.4,30.5,0,-4140,-128,56
1773578797.0544868,21.4,30.5,0,-4140,-128,56
1773578797.0752409,21.4,30.5,0,-4140,-128,56
1773578797.0954545,21.4,30.5,0,-4164,-124,48
1773578797.1204455,21.4,30.5,0,-4164,-124,48
1773578797.140981,21.4,30.5,0,-4192,-120,48
1773578797.1614907,21.4,30.5,0,-4192,-120,48
1773578797.181877,21.4,30.5,0,-4192,-120,48
1773578797.202569,21.4,30.5,0,-4164,-116,52
1773578797.2234976,21.4,30.5,0,-4164,-116,52
1773578797.2441304,21.4,30.5,0,-4164,-116,52
1773578797.2649431,21.4,30.5,0,-4192,-116,64
1773578797.2856393,21.4,30.5,0,-4192,-116,64
1773578797.3059683,21.4,30.5,0,-4184,-104,48
1773578797.3264222,21.4,30.5,0,-4184,-104,48
1773578797.3469288,21.4,30.5,0,-4184,-104,48
1773578797.3685656,21.4,30.5,0,-4180,-84,40
1773578797.3891444,21.4,30.5,0,-4180,-84,40
1773578797.409891,21.4,30.5,0,-4168,-112,52
1773578797.4304204,21.4,30.5,0,-4168,-112,52
1773578797.451795,21.4,30.5,0,-4168,-112,52
1773578797.472511,21.4,30.5,0,-4168,-128,52
1773578797.4929261,21.4,30.5,0,-4168,-128,52
1773578797.5143492,21.4,30.5,0,-4188,-96,64
1773578797.5347917,21.4,30.5,0,-4188,-96,64
1773578797.555345,21.4,30.5,0,-4188,-96,64
1773578797.5758648,21.4,30.5,0,-4164,-124,60
1773578797.5960574,21.4,30.5,0,-4164,-124,60
1773578797.6168685,21.4,30.5,0,-4168,-116,68
1773578797.637423,21.4,30.5,0,-4168,-116,68
1773578797.6580954,21.4,30.5,0,-4168,-116,68
1773578797.678763,21.4,30.5,0,-4180,-100,32
1773578797.6992764,21.4,30.5,0,-4180,-100,32
1773578797.7199962,21.4,30.5,0,-4180,-100,32
1773578797.7405996,21.4,30.5,0,-4156,-120,48
1773578797.7613854,21.4,30.5,0,-4156,-120,48
1773578797.781618,21.4,30.5,0,-4164,-104,24
1773578797.8023353,21.4,30.5,0,-4164,-104,24
1773578797.82275,21.4,30.5,0,-4164,-104,24
1773578797.8439553,21.4,30.5,0,-4192,-64,32
1773578797.8645012,21.4,30.5,0,-4192,-64,32
1773578797.885807,21.4,30.5,0,-4180,-92,48
1773578797.9062407,21.4,30.5,0,-4180,-92,48
1773578797.9268243,21.4,30.5,0,-4180,-92,48
1773578797.947137,21.4,30.5,0,-4184,-100,52
1773578797.967607,21.4,30.5,0,-4184,-100,52
1773578797.9887714,21.4,30.5,0,-4188,-184,48
1773578798.0094726,21.4,30.5,0,-4188,-184,48
1773578798.030322,21.4,30.5,0,-4188,-184,48
1773578798.050562,21.4,30.5,0,-4184,-104,72
1773578798.0715432,21.4,30.5,0,-4184,-104,72
1773578798.0922582,21.4,30.5,0,-4184,-104,72
1773578798.11307,21.4,30.5,0,-4212,-152,28
1773578798.1338856,21.4,30.5,0,-4212,-152,28
1773578798.1545188,21.4,30.5,0,-4132,-376,-4
1773578798.1749518,21.4,30.5,0,-4132,-376,-4
1773578798.1958172,21.4,30.5,0,-4132,-376,-4
1773578798.2165773,21.4,30.5,0,-4312,-1688,-1344
1773578798.2380154,21.4,30.5,0,-4312,-1688,-1344
1773578798.2584677,21.4,30.5,1,-4060,-700,-252
1773578798.278822,21.4,30.5,1,-4060,-700,-252
1773578798.2993093,21.4,30.5,1,-4060,-700,-252
1773578798.319974,21.4,30.5,1,-4164,-892,376
1773578798.3407876,21.4,30.5,1,-4164,-892,376
1773578798.3615613,21.4,30.5,1,-3792,-872,160
1773578798.381903,21.4,30.5,1,-3792,-872,160
1773578798.4026394,21.4,30.5,1,-3792,-872,160
1773578798.4234567,21.4,30.5,1,-3792,-872,160
1773578798.444164,21.4,30.6,1,-4068,-68,484
1773578798.4648964,21.4,30.6,1,-4068,-68,484
1773578798.4855225,21.4,30.6,1,-4068,-68,484
1773578798.5059974,21.4,30.6,1,-4276,64,452
1773578798.526727,21.4,30.6,1,-4276,64,452
1773578798.54789,21.4,30.6,1,-4020,100,416
1773578798.5709414,21.4,30.6,1,-4020,100,416
1773578798.5915446,21.4,30.6,1,-4020,100,416
1773578798.6120868,21.4,30.6,1,-4244,-4,332
1773578798.632546,21.4,30.6,1,-4244,-4,332
1773578798.6531143,21.4,30.6,1,-4056,20,320
1773578798.6737964,21.4,30.6,1,-4056,20,320
1773578798.6943767,21.4,30.6,1,-4056,20,320
1773578798.7148216,21.4,30.6,1,-4248,36,336
1773578798.7351599,21.4,30.6,1,-4248,36,336
1773578798.7558825,21.4,30.6,1,-4120,56,312
1773578798.7766407,21.4,30.6,1,-4120,56,312
1773578798.7970998,21.4,30.6,1,-4120,56,312
1773578798.81777,21.4,30.6,1,-4204,-4,272
1773578798.8380811,21.4,30.6,1,-4204,-4,272
1773578798.858908,21.4,30.6,1,-4204,-4,272
1773578798.8792627,21.4,30.6,1,-4164,16,244
1773578798.8997352,21.4,30.6,1,-4164,16,244
1773578798.9204285,21.4,30.6,1,-4196,52,272
1773578798.9412298,21.4,30.6,1,-4196,52,272
1773578798.9619763,21.4,30.6,1,-4196,52,272
1773578798.9826934,21.4,30.6,1,-4192,-4,204
1773578799.00438,21.4,30.6,1,-4192,-4,204
1773578799.0274456,21.4,30.6,1,-4172,4,196
1773578799.0480037,21.4,30.6,1,-4172,4,196
1773578799.0689008,21.4,30.6,1,-4172,4,196
1773578799.0896566,21.4,30.6,1,-4180,76,208
1773578799.1099446,21.4,30.6,1,-4180,76,208
1773578799.130443,21.4,30.6,1,-4196,88,200
1773578799.1519556,21.4,30.6,1,-4196,88,200
1773578799.1740172,21.4,30.6,1,-4196,88,200
1773578799.1954832,21.4,30.6,1,-4188,52,168
1773578799.2159958,21.4,30.6,1,-4188,52,168
1773578799.2372339,21.4,30.6,1,-4168,16,152
1773578799.2575283,21.4,30.6,1,-4168,16,152
1773578799.2779028,21.4,30.6,1,-4168,16,152
1773578799.2981808,21.4,30.6,1,-4196,100,196
1773578799.319381,21.4,30.6,1,-4196,100,196
1773578799.3399208,21.4,30.6,1,-4192,228,192
1773578799.3606477,21.4,30.6,1,-4192,228,192
1773578799.381113,21.4,30.6,1,-4192,228,192
1773578799.4020054,21.4,30.6,1,-4200,260,188
1773578799.422344,21.4,30.6,1,-4200,260,188
1773578799.4426885,21.4,30.6,1,-4200,260,188
1773578799.4635413,21.4,30.6,1,-4212,292,212
1773578799.4837828,21.4,30.6,1,-4212,292,212
1773578799.50467,21.4,30.6,1,-4180,200,160
1773578799.5256877,21.4,30.6,1,-4180,200,160
1773578799.546502,21.4,30.6,1,-4180,200,160
1773578799.5669956,21.4,30.6,1,-4176,156,156
1773578799.5872083,21.4,30.6,1,-4176,156,156
1773578799.6077893,21.4,30.6,1,-4204,232,176
1773578799.6284335,21.4,30.6,1,-4204,232,176
1773578799.6488192,21.4,30.6,1,-4204,232,176
1773578799.6693168,21.4,30.6,1,-4180,64,140
1773578799.689714,21.4,30.6,1,-4180,64,140
1773578799.7103639,21.4,30.6,1,-4180,64,140
1773578799.7307205,21.4,30.6,1,-4208,40,160
1773578799.7515635,21.4,30.6,1,-4208,40,160
1773578799.7718694,21.4,30.6,1,-4164,96,188
1773578799.7924926,21.4,30.6,1,-4164,96,188
1773578799.8130007,21.4,30.6,1,-4164,96,188
1773578799.835528,21.4,30.6,1,-4208,160,184
1773578799.8560343,21.4,30.6,1,-4208,160,184
1773578799.8764026,21.4,30.6,1,-4148,192,236
1773578799.897136,21.4,30.6,1,-4148,192,236
1773578799.9176083,21.4,30.6,1,-4148,192,236
1773578799.9384096,21.4,30.6,1,-4208,48,236
1773578799.958893,21.4,30.6,1,-4208,48,236
1773578799.979171,21.4,30.6,1,-4148,-160,184
1773578799.9996698,21.4,30.6,1,-4148,-160,184
1773578800.021453,21.4,30.6,1,-4148,-160,184
1773578800.0419867,21.4,30.6,1,-4216,-172,196
1773578800.0624127,21.4,30.6,1,-4216,-172,196
1773578800.0830793,21.4,30.6,1,-4168,-124,144
1773578800.1034536,21.4,30.6,1,-4168,-124,144
1773578800.1239643,21.4,30.6,1,-4168,-124,144
1773578800.1442902,21.4,30.6,1,-4204,-164,176
1773578800.1649191,21.4,30.6,1,-4204,-164,176
1773578800.185784,21.4,30.6,1,-4204,-164,176
1773578800.2062101,21.4,30.6,1,-4156,-148,148
1773578800.2268095,21.4,30.6,1,-4156,-148,148
1773578800.247389,21.4,30.6,1,-4176,-136,152
1773578800.2695389,21.4,30.6,1,-4176,-136,152
1773578800.290115,21.4,30.6,1,-4176,-136,152
1773578800.3106508,21.4,30.6,1,-4168,-164,172
1773578800.3312142,21.4,30.6,1,-4168,-164,172
1773578800.3518245,21.4,30.6,1,-4180,-180,156
1773578800.372121,21.4,30.6,1,-4180,-180,156
1773578800.3924122,21.4,30.6,1,-4180,-180,156
1773578800.4127007,21.4,30.6,1,-4196,-156,136
1773578800.4336383,21.4,30.6,1,-4196,-156,136
1773578800.454048,21.4,30.6,1,-4196,-156,136
1773578800.4747093,21.4,30.6,1,-4196,-156,136
1773578800.495281,21.4,30.7,1,-4180,-148,128
1773578800.5155187,21.4,30.7,1,-4180,-148,128
1773578800.5362992,21.4,30.7,1,-4176,-164,128
1773578800.5566168,21.4,30.7,1,-4176,-164,128
1773578800.576922,21.4,30.7,1,-4176,-164,128
1773578800.5971844,21.4,30.7,1,-4192,-136,112
1773578800.6175053,21.4,30.7,1,-4192,-136,112
1773578800.6378946,21.4,30.7,1,-4192,-136,112
1773578800.65853,21.4,30.7,1,-4172,-148,148
1773578800.6790216,21.4,30.7,1,-4172,-148,148
1773578800.699744,21.4,30.7,0,-4184,-144,100
1773578800.7206438,21.4,30.7,0,-4184,-144,100
1773578800.7408495,21.4,30.7,0,-4184,-144,100
1773578800.7613206,21.4,30.7,0,-4172,-160,136
1773578800.781838,21.4,30.7,0,-4172,-160,136
1773578800.8021934,21.4,30.7,0,-4184,-168,128
1773578800.822472,21.4,30.7,0,-4184,-168,128
1773578800.84335,21.4,30.7,0,-4184,-168,128
1773578800.863867,21.4,30.7,0,-4172,-152,104
1773578800.8854198,21.4,30.7,0,-4172,-152,104
1773578800.9056537,21.4,30.7,0,-4180,-160,108
1773578800.927653,21.4,30.7,0,-4180,-160,108
1773578800.9484956,21.4,30.7,0,-4180,-160,108
1773578800.968878,21.4,30.7,0,-4160,-172,116
1773578800.989372,21.4,30.7,0,-4160,-172,116
1773578801.0098596,21.4,30.7,0,-4160,-172,116
1773578801.0305066,21.4,30.7,0,-4184,-160,104
1773578801.0516758,21.4,30.7,0,-4184,-160,104
1773578801.072011,21.4,30.7,0,-4184,-172,92
1773578801.092605,21.4,30.7,0,-4184,-172,92
1773578801.1129093,21.4,30.7,0,-4184,-172,92
1773578801.1332066,21.4,30.7,0,-4180,-164,116
1773578801.1533992,21.4,30.7,0,-4180,-164,116
1773578801.1740656,21.4,30.7,0,-4160,-268,68
1773578801.1942587,21.4,30.7,0,-4160,-268,68
1773578801.2147815,21.4,30.7,0,-4160,-268,68
1773578801.2349753,21.4,30.7,0,-3736,-1156,-620
1773578801.2552388,21.4,30.7,0,-3736,-1156,-620
1773578801.2757592,21.4,30.7,0,-3736,-1156,-620
1773578801.2964685,21.4,30.7,0,-4052,708,-252
1773578801.316997,21.4,30.7,0,-4052,708,-252
1773578801.3388119,21.4,30.7,0,-4304,-396,368
1773578801.3592439,21.4,30.7,0,-4304,-396,368
1773578801.3798025,21.4,30.7,0,-4304,-396,368
1773578801.4022346,21.4,30.7,0,-4208,-220,188
1773578801.422721,21.4,30.7,0,-4208,-220,188
1773578801.44318,21.4,30.7,0,-4036,200,-152
1773578801.4638138,21.4,30.7,0,-4036,200,-152
1773578801.4845505,21.4,30.7,0,-4036,200,-152
1773578801.5059931,21.4,30.7,0,-4272,-192,96
1773578801.5265174,21.4,30.7,0,-4272,-192,96
1773578801.547521,21.4,30.7,0,-4132,-208,72
1773578801.5678341,21.4,30.7,0,-4132,-208,72
1773578801.588437,21.4,30.7,0,-4132,-208,72
1773578801.6087945,21.4,30.7,0,-4128,4,88
1773578801.6293225,21.4,30.7,0,-4128,4,88
1773578801.6498518,21.4,30.7,0,-4020,-52,-108
1773578801.6707695,21.4,30.7,0,-4020,-52,-108
1773578801.6914287,21.4,30.7,0,-4020,-52,-108
1773578801.711954,21.4,30.7,0,-4212,-148,56
1773578801.7323277,21.4,30.7,0,-4212,-148,56
1773578801.7525914,21.4,30.7,0,-4212,-148,56
1773578801.7727683,21.4,30.7,0,-4128,-16,44
1773578801.7933414,21.4,30.7,0,-4128,-16,44
1773578801.8136625,21.4,30.7,0,-4212,-132,56
1773578801.8343456,21.4,30.7,0,-4212,-132,56
1773578801.8549018,21.4,30.7,0,-4212,-132,56
1773578801.8754747,21.4,30.7,0,-4172,-92,76
1773578801.8959668,21.4,30.7,0,-4172,-92,76
1773578801.9164433,21.4,30.7,0,-4192,-52,24
1773578801.936952,21.4,30.7,0,-4192,-52,24
1773578801.9575794,21.4,30.7,0,-4192,-52,24
1773578801.9781995,21.4,30.7,0,-4164,-120,80
1773578801.9988778,21.4,30.7,0,-4164,-120,80
1773578802.0193815,21.4,30.7,0,-4192,-80,60
1773578802.0398748,21.4,30.7,0,-4192,-80,60
1773578802.060615,21.4,30.7,0,-4192,-80,60
1773578802.082755,21.4,30.7,0,-4436,880,256
1773578802.1048737,21.4,30.7,0,-4436,880,256
1773578802.1256495,21.4,30.7,0,-3992,48,296
1773578802.145924,21.4,30.7,0,-3992,48,296
1773578802.1666114,21.4,30.7,0,-3992,48,296
1773578802.188037,21.4,30.7,0,-4292,336,88
1773578802.2085407,21.4,30.7,0,-4292,336,88
1773578802.229454,21.4,30.7,0,-4292,336,88
1773578802.2500618,21.4,30.7,0,-4064,152,156
1773578802.2710063,21.4,30.7,0,-4064,152,156
1773578802.2916782,21.4,30.7,0,-4288,-160,152
1773578802.3119304,21.4,30.7,0,-4288,-160,152
1773578802.3324344,21.4,30.7,0,-4288,-160,152
1773578802.3526158,21.4,30.7,0,-4108,-40,68
1773578802.3735285,21.4,30.7,0,-4108,-40,68
1773578802.394024,21.4,30.7,0,-4244,-148,96
1773578802.4153354,21.4,30.7,0,-4244,-148,96
1773578802.436188,21.4,30.7,0,-4244,-148,96
1773578802.4570856,21.4,30.7,0,-4112,-64,188
1773578802.477567,21.4,30.7,0,-4112,-64,188
1773578802.4979784,21.4,30.7,0,-4112,-64,188
1773578802.5183785,21.4,30.7,0,-4112,-64,188
1773578802.538711,21.4,30.8,0,-4240,200,268
1773578802.5591822,21.4,30.8,0,-4240,200,268
1773578802.579751,21.4,30.8,0,-4116,-1004,204
1773578802.60039,21.4,30.8,0,-4116,-1004,204
1773578802.6209292,21.4,30.8,0,-4116,-1004,204
1773578802.6412792,21.4,30.8,0,-3996,284,-220
1773578802.662108,21.4,30.8,0,-3996,284,-220
1773578802.6826422,21.4,30.8,0,-4076,-116,104
1773578802.7031093,21.4,30.8,0,-4076,-116,104
1773578802.7235,21.4,30.8,0,-4076,-116,104
1773578802.744196,21.4,30.8,0,-4168,-128,44
1773578802.7648423,21.4,30.8,0,-4168,-128,44
1773578802.7859242,21.4,30.8,0,-4168,-128,44
1773578802.8064194,21.4,30.8,0,-4196,-152,108
1773578802.8267105,21.4,30.8,0,-4196,-152,108
1773578802.847495,21.4,30.8,0,-4212,-132,56
1773578802.8686383,21.4,30.8,0,-4212,-132,56
1773578802.8891685,21.4,30.8,0,-4212,-132,56
1773578802.9098303,21.4,30.8,0,-4160,-92,76
1773578802.930494,21.4,30.8,0,-4160,-92,76
1773578802.9510815,21.4,30.8,0,-4192,-80,32
1773578802.9716828,21.4,30.8,0,-4192,-80,32
1773578802.9925842,21.4,30.8,0,-4192,-80,32
1773578803.013189,21.4,30.8,0,-4188,-108,80
1773578803.0339184,21.4,30.8,0,-4188,-108,80
1773578803.0544782,21.4,30.8,0,-4192,-148,40
1773578803.075058,21.4,30.8,0,-4192,-148,40
1773578803.0954003,21.4,30.8,0,-4192,-148,40
1773578803.1159153,21.4,30.8,0,-4156,-120,40
1773578803.1365771,21.4,30.8,0,-4156,-120,40
1773578803.1569285,21.4,30.8,0,-4156,-120,40
1773578803.178964,21.4,30.8,0,-4196,-120,36
1773578803.1993313,21.4,30.8,0,-4196,-120,36
1773578803.2196906,21.4,30.8,0,-4172,-116,36
1773578803.2403953,21.4,30.8,0,-4172,-116,36
1773578803.260659,21.4,30.8,0,-4172,-116,36
1773578803.2812142,21.4,30.8,0,-4200,-108,44
1773578803.3019502,21.4,30.8,0,-4200,-108,44
1773578803.3225925,21.4,30.8,0,-4180,-108,56
1773578803.343334,21.4,30.8,0,-4180,-108,56
1773578803.3637917,21.4,30.8,0,-4180,-108,56
1773578803.3839495,21.4,30.8,0,-4176,-72,48
1773578803.4045894,21.4,30.8,0,-4176,-72,48
1773578803.4248197,21.4,30.8,0,-4192,-132,56
1773578803.4454248,21.4,30.8,0,-4192,-132,56
1773578803.4661348,21.4,30.8,0,-4192,-132,56
1773578803.4865465,21.4,30.8,0,-4184,-116,52
1773578803.5071867,21.4,30.8,0,-4184,-116,52
1773578803.5278316,21.4,30.8,0,-4184,-116,52
1773578803.548235,21.4,30.8,0,-4184,-128,64
1773578803.5692818,21.4,30.8,0,-4184,-128,64
1773578803.589945,21.4,30.8,0,-4184,-120,40
1773578803.610556,21.4,30.8,0,-4184,-120,40
1773578803.6320462,21.4,30.8,0,-4184,-120,40
1773578803.652868,21.4,30.8,0,-4168,-124,44
1773578803.6739295,21.4,30.8,0,-4168,-124,44
1773578803.6943748,21.4,30.8,0,-4180,-132,52
1773578803.7146218,21.4,30.8,0,-4180,-132,52
1773578803.7356791,21.4,30.8,0,-4180,-132,52
1773578803.7569928,21.4,30.8,0,-4180,-104,56
1773578803.7775424,21.4,30.8,0,-4180,-104,56
1773578803.7977223,21.4,30.8,0,-4188,-120,60
1773578803.8182516,21.4,30.8,0,-4188,-120,60
1773578803.838962,21.4,30.8,0,-4188,-120,60
1773578803.8595862,21.4,30.8,0,-4184,-92,64
1773578803.8801436,21.4,30.8,0,-4184,-92,64
1773578803.9009254,21.4,30.8,0,-4184,-92,64
1773578803.9215543,21.4,30.8,0,-4196,-132,52
1773578803.9422927,21.4,30.8,0,-4196,-132,52
1773578803.9629216,21.4,30.8,0,-4176,-132,44
1773578803.9832435,21.4,30.8,0,-4176,-132,44
1773578804.003659,21.4,30.8,0,-4176,-132,44
1773578804.0245116,21.4,30.8,0,-4204,-68,44
1773578804.0454018,21.4,30.8,0,-4204,-68,44
1773578804.066237,21.4,30.8,0,-4168,-128,64
1773578804.086672,21.4,30.8,0,-4168,-128,64
1773578804.1072087,21.4,30.8,0,-4168,-128,64
1773578804.1276586,21.4,30.8,0,-4196,-112,40
1773578804.148433,21.4,30.8,0,-4196,-112,40
1773578804.1691344,21.4,30.8,0,-4172,-120,60
1773578804.1894784,21.4,30.8,0,-4172,-120,60
1773578804.210266,21.4,30.8,0,-4172,-120,60
1773578804.2314303,21.4,30.8,0,-4184,-96,56
1773578804.2533367,21.4,30.8,0,-4184,-96,56
1773578804.274459,21.4,30.8,0,-4180,-120,80
1773578804.2949715,21.4,30.8,0,-4180,-120,80
1773578804.3155317,21.4,30.8,0,-4180,-120,80
1773578804.3357835,21.4,30.8,0,-4172,-60,76
1773578804.3565323,21.4,30.8,0,-4172,-60,76
1773578804.3772101,21.4,30.8,0,-4172,-60,76
1773578804.3976617,21.4,30.8,0,-4168,-108,60
1773578804.4183269,21.4,30.8,0,-4168,-108,60
1773578804.4388251,21.4,30.8,0,-4192,-100,-4
1773578804.4591892,21.4,30.8,0,-4192,-100,-4
1773578804.4796295,21.4,30.8,0,-4192,-100,-4
1773578804.500131,21.4,30.8,0,-4168,-72,68
1773578804.520442,21.4,30.8,0,-4168,-72,68
1773578804.540768,21.4,30.8,0,-4168,-72,68
1773578804.5614007,21.4,30.8,0,-4168,-72,68
1773578804.5820174,21.4,30.9,0,-4140,-140,48
1773578804.602996,21.4,30.9,0,-4140,-140,48
1773578804.6234949,21.4,30.9,0,-4176,-120,56
1773578804.6441283,21.4,30.9,0,-4176,-120,56
1773578804.6645336,21.4,30.9,0,-4176,-120,56
1773578804.6859095,21.4,30.9,0,-4192,-96,56
1773578804.706532,21.4,30.9,0,-4192,-96,56
1773578804.7270224,21.4,30.9,0,-4168,-4,100
1773578804.7473166,21.4,30.9,0,-4168,-4,100
1773578804.7678304,21.4,30.9,0,-4168,-4,100
1773578804.788501,21.4,30.9,0,-4200,-56,36
1773578804.8091261,21.4,30.9,0,-4200,-56,36
1773578804.8296618,21.4,30.9,0,-4152,-44,68
1773578804.8500373,21.4,30.9,0,-4152,-44,68
1773578804.8705459,21.4,30.9,0,-4152,-44,68
1773578804.891097,21.4,30.9,0,-4172,-100,36
1773578804.911575,21.4,30.9,0,-4172,-100,36
1773578804.93198,21.4,30.9,0,-4172,-100,36
1773578804.952655,21.4,30.9,0,-4188,-160,56
1773578804.973041,21.4,30.9,0,-4188,-160,56
1773578804.9933598,21.4,30.9,0,-4172,-84,60
1773578805.0139463,21.4,30.9,0,-4172,-84,60
1773578805.034262,21.4,30.9,0,-4172,-84,60
1773578805.0549858,21.4,30.9,0,-4172,-80,32
1773578805.0754566,21.4,30.9,0,-4172,-80,32
1773578805.0960217,21.4,30.9,0,-4184,-88,64
1773578805.1163268,21.4,30.9,0,-4184,-88,64
1773578805.136592,21.4,30.9,0,-4184,-88,64
1773578805.1571019,21.4,30.9,0,-4164,-76,48
1773578805.178943,21.4,30.9,0,-4164,-76,48
1773578805.1994164,21.4,30.9,0,-4164,-76,48
1773578805.2199705,21.4,30.9,0,-4144,-120,60
1773578805.2412744,21.4,30.9,0,-4144,-120,60
1773578805.2618024,21.4,30.9,0,-4188,-124,60
1773578805.2821825,21.4,30.9,0,-4188,-124,60
1773578805.302412,21.4,30.9,0,-4188,-124,60
1773578805.3231413,21.4,30.9,0,-4196,-132,36
1773578805.3436337,21.4,30.9,0,-4196,-132,36
1773578805.3640764,21.4,30.9,0,-4160,-112,64
1773578805.3847094,21.4,30.9,0,-4160,-112,64
1773578805.4058506,21.4,30.9,0,-4160,-112,64
1773578805.4261425,21.4,30.9,0,-4172,-128,48
1773578805.446766,21.4,30.9,0,-4172,-128,48
1773578805.4676352,21.4,30.9,1,-4164,-108,32
1773578805.4880536,21.4,30.9,1,-4164,-108,32
1773578805.508597,21.4,30.9,1,-4164,-108,32
1773578805.5289605,21.4,30.9,1,-4184,-100,40
1773578805.549451,21.4,30.9,1,-4184,-100,40
1773578805.570066,21.4,30.9,1,-4184,-100,40
1773578805.5905428,21.4,30.9,1,-4160,-120,60
1773578805.6112254,21.4,30.9,1,-4160,-120,60
1773578805.6317968,21.4,30.9,1,-4172,-88,52
1773578805.6526382,21.4,30.9,1,-4172,-88,52
1773578805.6734214,21.4,30.9,1,-4172,-88,52
1773578805.6941578,21.4,30.9,1,-4180,-104,44
1773578805.7148318,21.4,30.9,1,-4180,-104,44
1773578805.7353194,21.4,30.9,1,-4172,-104,60
1773578805.7557929,21.4,30.9,1,-4172,-104,60
1773578805.776919,21.4,30.9,1,-4172,-104,60
1773578805.7974918,21.4,30.9,1,-4184,-100,56
1773578805.818831,21.4,30.9,1,-4184,-100,56
1773578805.839109,21.4,30.9,1,-4200,-120,44
1773578805.859532,21.4,30.9,1,-4200,-120,44
1773578805.8799298,21.4,30.9,1,-4200,-120,44
1773578805.900282,21.4,30.9,1,-4184,-116,44
1773578805.920698,21.4,30.9,1,-4184,-116,44
1773578805.9409528,21.4,30.9,1,-4184,-116,44
1773578805.9617844,21.4,30.9,1,-4184,-120,56
1773578805.9820724,21.4,30.9,1,-4184,-120,56
1773578806.0025058,21.4,30.9,1,-4180,-100,60
1773578806.0231326,21.4,30.9,1,-4180,-100,60
1773578806.0435529,21.4,30.9,1,-4180,-100,60
1773578806.0639284,21.4,30.9,1,-4184,-124,64
1773578806.0863833,21.4,30.9,1,-4184,-124,64
1773578806.1066382,21.4,30.9,1,-4188,-120,60
1773578806.1273081,21.4,30.9,1,-4188,-120,60
1773578806.147972,21.4,30.9,1,-4188,-120,60
1773578806.1694834,21.4,30.9,1,-4176,-120,44
1773578806.1898665,21.4,30.9,1,-4176,-120,44
1773578806.210469,21.4,30.9,1,-4168,-140,64
1773578806.2308874,21.4,30.9,1,-4168,-140,64
1773578806.251216,21.4,30.9,1,-4168,-140,64
1773578806.271644,21.4,30.9,1,-4176,-116,52
1773578806.292665,21.4,30.9,1,-4176,-116,52
1773578806.3132403,21.4,30.9,1,-4176,-116,52
1773578806.3337126,21.4,30.9,1,-4164,-88,68
1773578806.3555944,21.4,30.9,1,-4164,-88,68
1773578806.3762143,21.4,30.9,1,-4188,-104,48
1773578806.3965435,21.4,30.9,1,-4188,-104,48
1773578806.4171045,21.4,30.9,1,-4188,-104,48
1773578806.4375215,21.4,30.9,1,-4180,-104,76
1773578806.4581501,21.4,30.9,1,-4180,-104,76
1773578806.4788282,21.4,30.9,1,-4176,-104,68
1773578806.4990225,21.4,30.9,1,-4176,-104,68
1773578806.519426,21.4,30.9,1,-4176,-104,68
1773578806.540047,21.4,30.9,1,-4064,-140,252
1773578806.5609815,21.4,30.9,1,-4064,-140,252
1773578806.5816405,21.4,30.9,1,-4064,-140,252
1773578806.6020997,21.4,30.9,1,-4064,-140,252
1773578806.622983,21.4,31.0,0,-4196,-140,92
1773578806.6435223,21.4,31.0,0,-4196,-140,92
1773578806.6640007,21.4,31.0,0,-4172,-88,80
1773578806.685301,21.4,31.0,0,-4172,-88,80
1773578806.7062144,21.4,31.0,0,-4172,-88,80
1773578806.726872,21.4,31.0,0,-4172,-52,56
1773578806.747418,21.4,31.0,0,-4172,-52,56
1773578806.7687106,21.4,31.0,0,-4184,-112,52
1773578806.789066,21.4,31.0,0,-4184,-112,52
1773578806.810067,21.4,31.0,0,-4184,-112,52
1773578806.830424,21.4,31.0,0,-4184,-116,48
1773578806.8509004,21.4,31.0,0,-4184,-116,48
1773578806.871467,21.4,31.0,0,-4180,-120,64
1773578806.8921578,21.4,31.0,0,-4180,-120,64
1773578806.9127982,21.4,31.0,0,-4180,-120,64
1773578806.9333782,21.4,31.0,0,-4172,-108,48
1773578806.953722,21.4,31.0,0,-4172,-108,48
1773578806.9741259,21.4,31.0,0,-4172,-108,48
1773578806.9947555,21.4,31.0,0,-4160,-108,56
1773578807.015307,21.4,31.0,0,-4160,-108,56
1773578807.0356026,21.4,31.0,0,-4168,-112,64
1773578807.0562897,21.4,31.0,0,-4168,-112,64
1773578807.0767698,21.4,31.0,0,-4168,-112,64
1773578807.0973241,21.4,31.0,0,-4176,-120,44
1773578807.11919,21.4,31.0,0,-4176,-120,44
1773578807.1397986,21.4,31.0,0,-4160,-104,52
1773578807.1605883,21.4,31.0,0,-4160,-104,52
1773578807.1813679,21.4,31.0,0,-4160,-104,52
1773578807.2023504,21.4,31.0,0,-4176,-104,60
1773578807.2229917,21.4,31.0,0,-4176,-104,60
1773578807.2436445,21.4,31.0,0,-4188,-108,36
1773578807.2638521,21.4,31.0,0,-4188,-108,36
1773578807.2842603,21.4,31.0,0,-4188,-108,36
1773578807.3048053,21.4,31.0,0,-4188,-132,48
1773578807.325338,21.4,31.0,0,-4188,-132,48
1773578807.3461106,21.4,31.0,0,-4188,-132,48
1773578807.366534,21.4,31.0,0,-4184,-116,64
1773578807.3869102,21.4,31.0,0,-4184,-116,64
1773578807.4076273,21.4,31.0,0,-4168,-124,68
1773578807.4279883,21.4,31.0,0,-4168,-124,68
1773578807.4484043,21.4,31.0,0,-4168,-124,68
1773578807.4693463,21.4,31.0,0,-4168,-88,64
1773578807.4898348,21.4,31.0,0,-4168,-88,64
1773578807.5101647,21.4,31.0,0,-4172,-112,60
1773578807.5303617,21.4,31.0,0,-4172,-112,60
1773578807.5507996,21.4,31.0,0,-4172,-112,60
1773578807.5712771,21.4,31.0,0,-4148,-124,68
1773578807.5917237,21.4,31.0,0,-4148,-124,68
1773578807.6119285,21.4,31.0,0,-4148,-124,68
1773578807.6324415,21.4,31.0,0,-4172,-112,60
1773578807.6530135,21.4,31.0,0,-4172,-112,60
1773578807.6736338,21.4,31.0,0,-4180,-132,64
1773578807.6941926,21.4,31.0,0,-4180,-132,64
1773578807.7145374,21.4,31.0,0,-4180,-132,64
1773578807.7353313,21.4,31.0,0,-4180,-120,32
1773578807.7557814,21.4,31.0,0,-4180,-120,32
1773578807.7761233,21.4,31.0,0,-4188,-116,60
1773578807.7976756,21.4,31.0,0,-4188,-116,60
1773578807.8197396,21.4,31.0,0,-4188,-116,60
1773578807.840434,21.4,31.0,0,-4168,-104,44
1773578807.8606527,21.4,31.0,0,-4168,-104,44
1773578807.8810618,21.4,31.0,0,-4172,-112,68
1773578807.9017985,21.4,31.0,0,-4172,-112,68
1773578807.9230964,21.4,31.0,0,-4172,-112,68
1773578807.9435148,21.4,31.0,0,-4168,-116,52
1773578807.9642372,21.4,31.0,0,-4168,-116,52
1773578807.984701,21.4,31.0,0,-4184,-104,48
1773578808.0052662,21.4,31.0,0,-4184,-104,48
1773578808.0257862,21.4,31.0,0,-4184,-104,48
1773578808.0460985,21.4,31.0,0,-4180,-104,40
1773578808.066695,21.4,31.0,0,-4180,-104,40
1773578808.0869956,21.4,31.0,0,-4180,-104,40
1773578808.1075323,21.4,31.0,0,-4176,-112,60
1773578808.1279,21.4,31.0,0,-4176,-112,60
1773578808.1482594,21.4,31.0,0,-4180,-104,44
1773578808.1691167,21.4,31.0,0,-4180,-104,44
1773578808.1897728,21.4,31.0,0,-4180,-104,44
1773578808.2102947,21.4,31.0,0,-4188,-112,68
1773578808.2307625,21.4,31.0,0,-4188,-112,68
1773578808.2515922,21.4,31.0,0,-4192,-96,76
1773578808.2718706,21.4,31.0,0,-4192,-96,76
1773578808.2923417,21.4,31.0,0,-4192,-96,76
1773578808.31261,21.4,31.0,0,-4160,-124,48
1773578808.3331153,21.4,31.0,0,-4160,-124,48
1773578808.3536675,21.4,31.0,0,-4160,-124,48
1773578808.3742454,21.4,31.0,0,-4172,-100,56
1773578808.3946261,21.4,31.0,0,-4172,-100,56
1773578808.4149022,21.4,31.0,0,-4176,-108,68
1773578808.4352577,21.4,31.0,0,-4176,-108,68
1773578808.456606,21.4,31.0,0,-4176,-108,68
1773578808.4770157,21.4,31.0,0,-4160,-112,56
1773578808.4975708,21.4,31.0,0,-4160,-112,56
1773578808.518032,21.4,31.0,0,-4200,-108,60
1773578808.538578,21.4,31.0,0,-4200,-108,60
1773578808.559509,21.4,31.0,0,-4200,-108,60
1773578808.579986,21.4,31.0,0,-4176,-108,40
1773578808.6010382,21.4,31.0,0,-4176,-108,40
1773578808.6224785,21.4,31.0,0,-4176,-108,40
1773578808.643059,21.4,31.0,0,-4176,-108,40
1773578808.6634626,21.4,31.1,0,-4176,-100,68
1773578808.6836123,21.4,31.1,0,-4176,-100,68
1773578808.7040262,21.4,31.1,0,-4192,-120,60
1773578808.724683,21.4,31.1,0,-4192,-120,60
1773578808.745585,21.4,31.1,0,-4192,-120,60
1773578808.7661958,21.4,31.1,0,-4188,-124,48
1773578808.7866185,21.4,31.1,0,-4188,-124,48
1773578808.8068147,21.4,31.1,0,-4168,-124,56
1773578808.8270953,21.4,31.1,0,-4168,-124,56
1773578808.8475423,21.4,31.1,0,-4168,-124,56
1773578808.8698745,21.4,31.1,0,-4172,-92,60
1773578808.8906908,21.4,31.1,0,-4172,-92,60
1773578808.9111216,21.4,31.1,0,-4172,-92,60
1773578808.9318123,21.4,31.1,0,-4160,-108,68
1773578808.9526463,21.4,31.1,0,-4160,-108,68
1773578808.973174,21.4,31.1,0,-4156,-108,56
1773578808.9935825,21.4,31.1,0,-4156,-108,56
1773578809.0142567,21.4,31.1,0,-4156,-108,56
1773578809.0360343,21.4,31.1,0,-4168,-88,52
1773578809.056802,21.4,31.1,0,-4168,-88,52
1773578809.0781481,21.4,31.1,0,-4176,-104,56
1773578809.099885,21.4,31.1,0,-4176,-104,56
1773578809.121683,21.4,31.1,0,-4176,-104,56
1773578809.1421309,21.4,31.1,0,-4172,-112,64
