timestamp,temp,hum,mic,ax,ay,az
1773578907.764935,21.4,30.8,0,-4168,-112,64
1773578907.7852473,21.4,30.8,0,-4180,-120,56
1773578907.8064935,21.4,30.8,0,-4180,-120,56
1773578907.827198,21.4,30.8,0,-4180,-120,56
1773578907.8479447,21.4,30.8,0,-4164,-108,44
1773578907.8694246,21.4,30.8,0,-4164,-108,44
1773578907.890117,21.4,30.8,0,-4152,-88,48
1773578907.9103725,21.4,30.8,0,-4152,-88,48
1773578907.9308598,21.4,30.8,0,-4152,-88,48
1773578907.9516723,21.4,30.8,0,-4196,-120,60
1773578907.9719641,21.4,30.8,0,-4196,-120,60
1773578907.9926336,21.4,30.8,0,-4196,-120,60
1773578908.0132573,21.4,30.8,0,-4176,-108,44
1773578908.0356636,21.4,30.8,0,-4176,-108,44
1773578908.0562422,21.4,30.8,0,-4160,-80,40
1773578908.0767763,21.4,30.8,0,-4160,-80,40
1773578908.097347,21.4,30.8,0,-4160,-80,40
1773578908.1192477,21.4,30.8,0,-4168,-84,60
1773578908.1399662,21.4,30.8,0,-4168,-84,60
1773578908.1606305,21.4,30.8,0,-4176,-112,64
1773578908.180971,21.4,30.8,0,-4176,-112,64
1773578908.2015803,21.4,30.8,0,-4176,-112,64
1773578908.2223148,21.4,30.8,0,-4148,-120,48
1773578908.2430272,21.4,30.8,0,-4148,-120,48
1773578908.2640347,21.4,30.8,0,-4180,-96,52
1773578908.2850542,21.4,30.8,0,-4180,-96,52
1773578908.3058584,21.4,30.8,0,-4180,-96,52
1773578908.3265722,21.4,30.8,0,-4188,-84,52
1773578908.34692,21.4,30.8,0,-4188,-84,52
1773578908.3673089,21.4,30.8,0,-4156,-104,48
1773578908.3879027,21.4,30.8,0,-4156,-104,48
1773578908.408614,21.4,30.8,0,-4156,-104,48
1773578908.429111,21.4,30.8,0,-4144,-128,44
1773578908.449715,21.4,30.8,0,-4144,-128,44
1773578908.4702353,21.4,30.8,0,-4144,-128,44
1773578908.4910383,21.4,30.8,0,-4196,-120,36
1773578908.5117598,21.4,30.8,0,-4196,-120,36
1773578908.5324337,21.4,30.8,0,-4168,-100,44
1773578908.554712,21.4,30.8,0,-4168,-100,44
1773578908.5753117,21.4,30.8,0,-4168,-100,44
1773578908.5961273,21.4,30.8,0,-4188,-140,44
1773578908.6163905,21.4,30.8,0,-4188,-140,44
1773578908.6367178,21.4,30.8,0,-4156,-104,88
1773578908.6574905,21.4,30.8,0,-4156,-104,88
1773578908.6781719,21.4,30.8,0,-4156,-104,88
1773578908.6985157,21.4,30.8,0,-4196,-116,44
1773578908.719279,21.4,30.8,0,-4196,-116,44
1773578908.739873,21.4,30.8,0,-4156,-116,56
1773578908.7601936,21.4,30.8,0,-4156,-116,56
1773578908.780763,21.4,30.8,0,-4156,-116,56
1773578908.801497,21.4,30.8,0,-4176,-92,60
1773578908.822206,21.4,30.8,0,-4176,-92,60
1773578908.8427703,21.4,30.8,0,-4176,-92,60
1773578908.862955,21.4,30.8,0,-4172,-120,48
1773578908.8836238,21.4,30.8,0,-4172,-120,48
1773578908.904362,21.4,30.8,0,-4168,-120,60
1773578908.924705,21.4,30.8,0,-4168,-120,60
1773578908.945175,21.4,30.8,0,-4168,-120,60
1773578908.9656303,21.4,30.8,0,-4164,-108,32
1773578908.9862754,21.4,30.8,0,-4164,-108,32
1773578909.006713,21.4,30.8,0,-4192,-72,52
1773578909.0274556,21.4,30.8,0,-4192,-72,52
1773578909.0480223,21.4,30.8,0,-4192,-72,52
1773578909.068442,21.4,30.8,0,-4184,-100,52
1773578909.088668,21.4,30.8,0,-4184,-100,52
1773578909.1091404,21.4,30.8,0,-4160,-88,40
1773578909.1296272,21.4,30.8,0,-4160,-88,40
1773578909.1501138,21.4,30.8,0,-4160,-88,40
1773578909.1707592,21.4,30.8,0,-4168,-120,52
1773578909.191844,21.4,30.8,0,-4168,-120,52
1773578909.2120833,21.4,30.8,0,-4168,-120,52
1773578909.232803,21.4,30.8,0,-4164,-96,48
1773578909.253316,21.4,30.8,0,-4164,-96,48
1773578909.2739925,21.4,30.8,0,-4168,-96,44
1773578909.294425,21.4,30.8,0,-4168,-96,44
1773578909.3147943,21.4,30.8,0,-4168,-96,44
1773578909.3353014,21.4,30.8,0,-4168,-100,48
1773578909.3557045,21.4,30.8,0,-4168,-100,48
1773578909.376552,21.4,30.8,0,-4176,-104,48
1773578909.397457,21.4,30.8,0,-4176,-104,48
1773578909.420832,21.4,30.8,0,-4176,-104,48
1773578909.4412441,21.4,30.8,0,-4176,-104,48
1773578909.4618196,21.4,30.8,0,-4152,-96,56
1773578909.4825509,21.4,30.8,0,-4152,-96,56
1773578909.5029685,21.4,30.8,0,-4152,-96,56
1773578909.5236454,21.4,30.8,0,-4192,-112,68
1773578909.544538,21.4,30.8,0,-4192,-112,68
1773578909.5652459,21.4,30.8,0,-4176,-116,52
1773578909.587269,21.4,30.8,0,-4176,-116,52
1773578909.6079772,21.4,30.8,0,-4176,-116,52
1773578909.6286447,21.4,30.8,0,-4164,-112,36
1773578909.649108,21.4,30.8,0,-4164,-112,36
1773578909.6713803,21.4,30.8,0,-4164,-108,80
1773578909.6919105,21.4,30.8,0,-4164,-108,80
1773578909.712575,21.4,30.8,0,-4164,-108,80
1773578909.7335548,21.4,30.8,0,-4188,-108,56
1773578909.7541897,21.4,30.8,0,-4188,-108,56
1773578909.7749834,21.4,30.8,0,-4184,-100,60
1773578909.7955556,21.4,30.8,0,-4184,-100,60
1773578909.8163762,21.4,30.8,0,-4184,-100,60
1773578909.8369396,21.4,30.8,0,-4172,-124,52
1773578909.857224,21.4,30.8,0,-4172,-124,52
1773578909.8774023,21.4,30.8,0,-4172,-96,52
1773578909.89792,21.4,30.8,0,-4172,-96,52
1773578909.9182367,21.4,30.8,0,-4172,-96,52
1773578909.9386399,21.4,30.8,0,-4192,-80,48
1773578909.9593272,21.4,30.8,0,-4192,-80,48
1773578909.9797378,21.4,30.8,0,-4192,-80,48
1773578910.000154,21.4,30.8,0,-4164,-112,52
1773578910.0206337,21.4,30.8,0,-4164,-112,52
1773578910.041302,21.4,30.8,0,-4180,-84,72
1773578910.0616496,21.4,30.8,0,-4180,-84,72
1773578910.0822499,21.4,30.8,0,-4180,-84,72
1773578910.1028216,21.4,30.8,0,-4180,-88,64
1773578910.1234221,21.4,30.8,0,-4180,-88,64
1773578910.1440592,21.4,30.8,0,-4176,-100,56
1773578910.1645286,21.4,30.8,0,-4176,-100,56
1773578910.1853044,21.4,30.8,0,-4176,-100,56
1773578910.2072785,21.4,30.8,0,-4148,-100,60
1773578910.2291098,21.4,30.8,0,-4148,-100,60
1773578910.2503994,21.4,30.8,0,-4164,-108,60
1773578910.270949,21.4,30.8,0,-4164,-108,60
1773578910.2916353,21.4,30.8,0,-4164,-108,60
1773578910.312361,21.4,30.8,0,-4184,-108,68
1773578910.3335297,21.4,30.8,0,-4184,-108,68
1773578910.3541224,21.4,30.8,0,-4184,-108,68
1773578910.374482,21.4,30.8,0,-4180,-108,56
1773578910.3953495,21.4,30.8,0,-4180,-108,56
1773578910.4172857,21.4,30.8,0,-4184,-96,52
1773578910.43789,21.4,30.8,0,-4184,-96,52
1773578910.4585292,21.4,30.8,0,-4184,-96,52
1773578910.4795063,21.4,30.8,0,-4192,-120,68
1773578910.500749,21.4,30.8,0,-4192,-120,68
1773578910.5213382,21.4,30.8,0,-4176,-88,72
1773578910.5419888,21.4,30.8,0,-4176,-88,72
1773578910.5622425,21.4,30.8,0,-4176,-88,72
1773578910.5828311,21.4,30.8,0,-4176,-104,40
1773578910.603378,21.4,30.8,0,-4176,-104,40
1773578910.6239805,21.4,30.8,0,-4180,-100,60
1773578910.6443362,21.4,30.8,0,-4180,-100,60
1773578910.6651807,21.4,30.8,0,-4180,-100,60
1773578910.6864924,21.4,30.8,0,-4196,-128,52
1773578910.7070675,21.4,30.8,0,-4196,-128,52
1773578910.7281408,21.4,30.8,0,-4160,-80,48
1773578910.7496347,21.4,30.8,0,-4160,-80,48
1773578910.7700973,21.4,30.8,0,-4160,-80,48
1773578910.7921505,21.4,30.8,0,-4192,-128,68
1773578910.813433,21.4,30.8,0,-4192,-128,68
1773578910.834661,21.4,30.8,0,-4184,-112,52
1773578910.8551645,21.4,30.8,0,-4184,-112,52
1773578910.8756723,21.4,30.8,0,-4184,-112,52
1773578910.8971436,21.4,30.8,0,-4180,-116,52
1773578910.9183214,21.4,30.8,0,-4180,-116,52
1773578910.9387946,21.4,30.8,0,-4156,-124,64
1773578910.9595363,21.4,30.8,0,-4156,-124,64
1773578910.979957,21.4,30.8,0,-4156,-124,64
1773578911.000396,21.4,30.8,0,-4200,-92,40
1773578911.0206504,21.4,30.8,0,-4200,-92,40
1773578911.040873,21.4,30.8,0,-4200,-92,40
1773578911.0616815,21.4,30.8,0,-4176,-120,60
1773578911.08224,21.4,30.8,0,-4176,-120,60
1773578911.1025662,21.4,30.8,0,-4176,-112,36
1773578911.123459,21.4,30.8,0,-4176,-112,36
1773578911.1440244,21.4,30.8,0,-4176,-112,36
1773578911.1643233,21.4,30.8,0,-4164,-92,68
1773578911.1859221,21.4,30.8,0,-4164,-92,68
1773578911.2065177,21.4,30.8,0,-4180,-116,60
1773578911.2271488,21.4,30.8,0,-4180,-116,60
1773578911.2490525,21.4,30.8,0,-4180,-116,60
1773578911.2695754,21.4,30.8,0,-4180,-120,44
1773578911.290148,21.4,30.8,0,-4180,-120,44
1773578911.3103793,21.4,30.8,0,-4164,-124,60
1773578911.3314228,21.4,30.8,0,-4164,-124,60
1773578911.352289,21.4,30.8,0,-4164,-124,60
1773578911.3727639,21.4,30.8,0,-4192,-128,52
1773578911.3930962,21.4,30.8,0,-4192,-128,52
1773578911.4135613,21.4,30.8,0,-4192,-128,52
1773578911.4350622,21.4,30.8,0,-4176,-124,56
1773578911.455748,21.4,30.8,0,-4176,-124,56
1773578911.4763155,21.4,30.8,0,-4176,-124,56
1773578911.4969304,21.4,30.8,0,-4192,-104,56
1773578911.5175571,21.4,30.8,0,-4192,-104,56
1773578911.537945,21.4,30.8,0,-4192,-104,56
1773578911.5584867,21.4,30.8,0,-4176,-108,52
1773578911.5789242,21.4,30.8,0,-4176,-108,52
1773578911.599627,21.4,30.8,0,-4176,-108,52
1773578911.6211789,21.4,30.8,0,-4164,-124,52
1773578911.6415737,21.4,30.8,0,-4164,-124,52
1773578911.662097,21.4,30.8,0,-4184,-108,68
1773578911.6827931,21.4,30.8,0,-4184,-108,68
1773578911.7032228,21.4,30.8,0,-4184,-108,68
1773578911.7239256,21.4,30.8,0,-4188,-100,56
1773578911.7451055,21.4,30.8,0,-4188,-100,56
1773578911.7660885,21.4,30.8,0,-4144,-124,32
1773578911.786946,21.4,30.8,0,-4144,-124,32
1773578911.8075087,21.4,30.8,0,-4144,-124,32
1773578911.8282013,21.4,30.8,0,-4184,-104,56
1773578911.8489497,21.4,30.8,0,-4184,-104,56
1773578911.8694232,21.4,30.8,0,-4176,-100,60
1773578911.889988,21.4,30.8,0,-4176,-100,60
1773578911.9112015,21.4,30.8,0,-4176,-100,60
1773578911.9329247,21.4,30.8,0,-4208,-108,44
1773578911.9537156,21.4,30.8,0,-4208,-108,44
1773578911.9748306,21.4,30.8,0,-4208,-268,28
1773578911.995137,21.4,30.8,0,-4208,-268,28
1773578912.0161483,21.4,30.8,0,-4208,-268,28
1773578912.0369194,21.4,30.8,0,-4116,-20,160
1773578912.0577261,21.4,30.8,0,-4116,-20,160
1773578912.0780883,21.4,30.8,0,-4212,-88,-16
1773578912.0988526,21.4,30.8,0,-4212,-88,-16
1773578912.119392,21.4,30.8,0,-4212,-88,-16
1773578912.1398094,21.4,30.8,0,-4124,-124,24
1773578912.160671,21.4,30.8,0,-4124,-124,24
1773578912.1813748,21.4,30.8,0,-4124,-124,24
1773578912.2036493,21.4,30.8,0,-4184,-88,68
1773578912.2242842,21.4,30.8,0,-4184,-88,68
1773578912.244766,21.4,30.8,0,-4144,-132,76
1773578912.2654347,21.4,30.8,0,-4144,-132,76
1773578912.285782,21.4,30.8,0,-4144,-132,76
1773578912.3063629,21.4,30.8,0,-4148,-88,76
1773578912.3268936,21.4,30.8,0,-4148,-88,76
1773578912.3473196,21.4,30.8,0,-4144,-92,60
1773578912.367556,21.4,30.8,0,-4144,-92,60
1773578912.3880405,21.4,30.8,0,-4144,-92,60
1773578912.4088197,21.4,30.8,0,-4184,-96,44
1773578912.429591,21.4,30.8,0,-4184,-96,44
1773578912.4502625,21.4,30.8,0,-4188,-76,64
1773578912.4710693,21.4,30.8,0,-4188,-76,64
1773578912.4916313,21.4,30.8,0,-4188,-76,64
1773578912.5126364,21.4,30.8,0,-4176,-112,64
1773578912.535328,21.4,30.8,0,-4176,-112,64
1773578912.5566351,21.4,30.8,0,-4168,-116,44
1773578912.5772107,21.4,30.8,0,-4168,-116,44
1773578912.5980792,21.4,30.8,0,-4168,-116,44
1773578912.6185293,21.4,30.8,0,-4184,-104,48
1773578912.639181,21.4,30.8,0,-4184,-104,48
1773578912.659701,21.4,30.8,0,-4184,-104,48
1773578912.6801457,21.4,30.8,0,-4176,-116,60
1773578912.700745,21.4,30.8,0,-4176,-116,60
1773578912.7213438,21.4,30.8,0,-4176,-124,60
1773578912.7422936,21.4,30.8,0,-4176,-124,60
1773578912.7629123,21.4,30.8,0,-4176,-124,60
1773578912.7881956,21.4,30.8,0,-4176,-120,40
1773578912.8088386,21.4,30.8,0,-4176,-120,40
1773578912.8295555,21.4,30.8,0,-4160,-112,36
1773578912.8505876,21.4,30.8,0,-4160,-112,36
1773578912.8729603,21.4,30.8,0,-4160,-112,36
1773578912.893963,21.4,30.8,0,-4172,-124,64
1773578912.9150696,21.4,30.8,0,-4172,-124,64
1773578912.9362097,21.4,30.8,0,-4172,-92,68
1773578912.9573312,21.4,30.8,0,-4172,-92,68
1773578912.978486,21.4,30.8,0,-4172,-92,68
1773578912.9996526,21.4,30.8,0,-4192,-132,60
1773578913.0205808,21.4,30.8,0,-4192,-132,60
1773578913.0413866,21.4,30.8,0,-4180,-120,32
1773578913.0618773,21.4,30.8,0,-4180,-120,32
1773578913.0833883,21.4,30.8,0,-4180,-120,32
1773578913.1067398,21.4,30.8,0,-4172,-108,52
1773578913.1272235,21.4,30.8,0,-4172,-108,52
1773578913.1483603,21.4,30.8,0,-4180,-76,60
1773578913.1693747,21.4,30.8,0,-4180,-76,60
1773578913.190016,21.4,30.8,0,-4180,-76,60
1773578913.211212,21.4,30.8,0,-4176,-120,60
1773578913.2326894,21.4,30.8,0,-4176,-120,60
1773578913.253255,21.4,30.8,0,-4168,-112,36
1773578913.273773,21.4,30.8,0,-4168,-112,36
1773578913.294145,21.4,30.8,0,-4168,-112,36
1773578913.3158638,21.4,30.8,0,-4180,-112,68
1773578913.336578,21.4,30.8,0,-4180,-112,68
1773578913.356918,21.4,30.8,0,-4176,-116,56
1773578913.377662,21.4,30.8,0,-4176,-116,56
1773578913.3981555,21.4,30.8,0,-4176,-116,56
1773578913.4187884,21.4,30.8,0,-4172,-128,48
1773578913.4395654,21.4,30.8,0,-4172,-128,48
1773578913.4598284,21.4,30.8,0,-4168,-112,60
1773578913.480209,21.4,30.8,0,-4168,-112,60
1773578913.502552,21.4,30.8,0,-4168,-112,60
1773578913.5240593,21.4,30.8,0,-4168,-112,60
1773578913.5443833,21.4,30.8,0,-4188,-88,32
1773578913.565452,21.4,30.8,0,-4188,-88,32
1773578913.586084,21.4,30.8,0,-4188,-88,32
1773578913.606408,21.4,30.8,0,-4180,-104,60
1773578913.6269226,21.4,30.8,0,-4180,-104,60
1773578913.6473362,21.4,30.8,0,-4176,-112,60
1773578913.6684582,21.4,30.8,0,-4176,-112,60
1773578913.6889565,21.4,30.8,0,-4176,-112,60
1773578913.7091503,21.4,30.8,0,-4168,-124,72
1773578913.7298949,21.4,30.8,0,-4168,-124,72
1773578913.7505012,21.4,30.8,0,-4160,-104,56
1773578913.7712076,21.4,30.8,0,-4160,-104,56
1773578913.7919722,21.4,30.8,0,-4160,-104,56
1773578913.812264,21.4,30.8,0,-4192,-104,60
1773578913.8324554,21.4,30.8,0,-4192,-104,60
1773578913.852679,21.4,30.8,0,-4192,-104,60
1773578913.8733194,21.4,30.8,0,-4176,-136,60
1773578913.8941422,21.4,30.8,0,-4176,-136,60
1773578913.9153898,21.4,30.8,0,-4168,-116,52
1773578913.9372504,21.4,30.8,0,-4168,-116,52
1773578913.9575946,21.4,30.8,0,-4168,-116,52
1773578913.9781222,21.4,30.8,0,-4176,-88,52
1773578914.0021138,21.4,30.8,0,-4176,-88,52
1773578914.0224104,21.4,30.8,0,-4192,-124,56
1773578914.0429537,21.4,30.8,0,-4192,-124,56
1773578914.0636997,21.4,30.8,0,-4192,-124,56
1773578914.0842242,21.4,30.8,0,-4176,-92,68
1773578914.1045709,21.4,30.8,0,-4176,-92,68
1773578914.1249716,21.4,30.8,0,-4180,-124,64
1773578914.1455064,21.4,30.8,0,-4180,-124,64
1773578914.1661978,21.4,30.8,0,-4180,-124,64
1773578914.1864562,21.4,30.8,0,-4176,-136,32
1773578914.2070248,21.4,30.8,0,-4176,-136,32
1773578914.2275953,21.4,30.8,0,-4176,-96,60
1773578914.2497478,21.4,30.8,0,-4176,-96,60
1773578914.2701988,21.4,30.8,0,-4176,-96,60
1773578914.2909102,21.4,30.8,0,-4164,-100,56
1773578914.311491,21.4,30.8,0,-4164,-100,56
1773578914.331882,21.4,30.8,0,-4200,-140,60
1773578914.3524036,21.4,30.8,0,-4200,-140,60
1773578914.3728862,21.4,30.8,0,-4200,-140,60
1773578914.3935478,21.4,30.8,0,-4168,-108,56
1773578914.4138396,21.4,30.8,0,-4168,-108,56
1773578914.4345467,21.4,30.8,0,-4168,-108,56
1773578914.4552946,21.4,30.8,0,-4160,-116,60
1773578914.4757967,21.4,30.8,0,-4160,-116,60
1773578914.496408,21.4,30.8,0,-4156,-112,36
1773578914.516955,21.4,30.8,0,-4156,-112,36
1773578914.5376554,21.4,30.8,0,-4156,-112,36
1773578914.5578203,21.4,30.8,0,-4180,-116,56
1773578914.5785882,21.4,30.8,0,-4180,-116,56
1773578914.5991051,21.4,30.8,0,-4160,-108,64
1773578914.619617,21.4,30.8,0,-4160,-108,64
1773578914.6398733,21.4,30.8,0,-4160,-108,64
1773578914.660291,21.4,30.8,0,-4164,-136,64
1773578914.6805365,21.4,30.8,0,-4164,-136,64
1773578914.700836,21.4,30.8,0,-4164,-136,64
1773578914.7211463,21.4,30.8,0,-4176,-88,56
1773578914.7416372,21.4,30.8,0,-4176,-88,56
1773578914.7620924,21.4,30.8,0,-4172,-124,44
1773578914.782376,21.4,30.8,0,-4172,-124,44
1773578914.803075,21.4,30.8,0,-4172,-124,44
1773578914.8235767,21.4,30.8,0,-4172,-112,68
1773578914.84436,21.4,30.8,0,-4172,-112,68
1773578914.865099,21.4,30.8,0,-4188,-100,64
1773578914.8856497,21.4,30.8,0,-4188,-100,64
1773578914.9063869,21.4,30.8,0,-4188,-100,64
1773578914.926716,21.4,30.8,0,-4184,-96,52
1773578914.9469788,21.4,30.8,0,-4184,-96,52
1773578914.9676924,21.4,30.8,0,-4188,-104,60
1773578914.987869,21.4,30.8,0,-4188,-104,60
1773578915.0083187,21.4,30.8,0,-4188,-104,60
1773578915.0286293,21.4,30.8,0,-4180,-108,52
1773578915.0492125,21.4,30.8,0,-4180,-108,52
1773578915.0696616,21.4,30.8,0,-4180,-108,52
1773578915.09024,21.4,30.8,0,-4180,-116,64
1773578915.1106226,21.4,30.8,0,-4180,-116,64
1773578915.1311352,21.4,30.8,0,-4184,-104,64
1773578915.1522083,21.4,30.8,0,-4184,-104,64
1773578915.1727967,21.4,30.8,0,-4184,-104,64
1773578915.1931689,21.4,30.8,0,-4188,-128,52
1773578915.2133834,21.4,30.8,0,-4188,-128,52
1773578915.2339375,21.4,30.8,0,-4176,-104,44
1773578915.2550313,21.4,30.8,0,-4176,-104,44
1773578915.2755136,21.4,30.8,0,-4176,-104,44
1773578915.296087,21.4,30.8,0,-4188,-104,52
1773578915.3166387,21.4,30.8,0,-4188,-104,52
1773578915.3370678,21.4,30.8,0,-4188,-104,52
1773578915.357442,21.4,30.8,0,-4164,-128,52
1773578915.3780706,21.4,30.8,0,-4164,-128,52
1773578915.3989289,21.4,30.8,0,-4184,-116,68
1773578915.4194083,21.4,30.8,0,-4184,-116,68
1773578915.4402623,21.4,30.8,0,-4184,-116,68
1773578915.4617121,21.4,30.8,0,-4200,-92,56
1773578915.4828167,21.4,30.8,0,-4200,-92,56
1773578915.5034995,21.4,30.8,0,-4192,-116,64
1773578915.5241282,21.4,30.8,0,-4192,-116,64
1773578915.5447063,21.4,30.8,0,-4192,-116,64
1773578915.5651093,21.4,30.8,0,-4192,-116,64
1773578915.586224,21.4,30.7,0,-4172,-124,52
1773578915.6071794,21.4,30.7,0,-4172,-124,52
1773578915.6279736,21.4,30.7,0,-4172,-124,52
1773578915.6492865,21.4,30.7,0,-4160,-108,68
1773578915.6702247,21.4,30.7,0,-4160,-108,68
1773578915.6908982,21.4,30.7,0,-4180,-104,44
1773578915.711116,21.4,30.7,0,-4180,-104,44
1773578915.7316434,21.4,30.7,0,-4180,-104,44
1773578915.7520468,21.4,30.7,0,-4188,-108,44
1773578915.7727947,21.4,30.7,0,-4188,-108,44
1773578915.7932956,21.4,30.7,0,-4168,-104,64
1773578915.8140805,21.4,30.7,0,-4168,-104,64
1773578915.8410785,21.4,30.7,0,-4180,-120,48
1773578915.8614914,21.4,30.7,0,-4180,-120,48
1773578915.8822818,21.4,30.7,0,-4180,-120,48
1773578915.903032,21.4,30.7,0,-4172,-124,56
1773578915.9235804,21.4,30.7,0,-4172,-124,56
1773578915.9441457,21.4,30.7,0,-4172,-124,56
1773578915.965492,21.4,30.7,0,-4168,-108,48
1773578915.9861693,21.4,30.7,0,-4168,-108,48
1773578916.00641,21.4,30.7,0,-4168,-116,44
1773578916.0268044,21.4,30.7,0,-4168,-116,44
1773578916.0475,21.4,30.7,0,-4168,-116,44
1773578916.0682833,21.4,30.7,0,-4184,-116,52
1773578916.0886037,21.4,30.7,0,-4184,-116,52
1773578916.1091545,21.4,30.7,0,-4180,-104,52
1773578916.1296723,21.4,30.7,0,-4180,-104,52
1773578916.1502533,21.4,30.7,0,-4180,-104,52
1773578916.1707418,21.4,30.7,0,-4168,-112,32
1773578916.1913157,21.4,30.7,0,-4168,-112,32
1773578916.2119622,21.4,30.7,0,-4168,-112,32
1773578916.2327294,21.4,30.7,0,-4176,-108,52
1773578916.2535384,21.4,30.7,0,-4176,-108,52
1773578916.2739236,21.4,30.7,0,-4176,-92,56
1773578916.2944012,21.4,30.7,0,-4176,-92,56
1773578916.3147626,21.4,30.7,0,-4176,-92,56
1773578916.3353074,21.4,30.7,0,-4172,-88,44
1773578916.3562553,21.4,30.7,0,-4172,-88,44
1773578916.3767943,21.4,30.7,0,-4180,-108,48
1773578916.3973467,21.4,30.7,0,-4180,-108,48
1773578916.4184291,21.4,30.7,0,-4180,-108,48
1773578916.4388776,21.4,30.7,0,-4188,-112,56
1773578916.4596376,21.4,30.7,0,-4188,-112,56
1773578916.4801114,21.4,30.7,0,-4184,-132,48
1773578916.5034053,21.4,30.7,0,-4184,-132,48
1773578916.5239818,21.4,30.7,0,-4184,-132,48
1773578916.5445478,21.4,30.7,0,-4168,-128,56
1773578916.56536,21.4,30.7,0,-4168,-128,56
1773578916.5863004,21.4,30.7,0,-4196,-104,64
1773578916.6069207,21.4,30.7,0,-4196,-104,64
1773578916.6277115,21.4,30.7,0,-4196,-104,64
1773578916.6490557,21.4,30.7,0,-4180,-84,48
1773578916.671271,21.4,30.7,0,-4180,-84,48
1773578916.691807,21.4,30.7,0,-4196,-116,56
1773578916.712637,21.4,30.7,0,-4196,-116,56
1773578916.7331433,21.4,30.7,0,-4196,-116,56
1773578916.7537484,21.4,30.7,0,-4188,-128,44
1773578916.7744203,21.4,30.7,0,-4188,-128,44
1773578916.7951126,21.4,30.7,0,-4188,-128,44
1773578916.8154938,21.4,30.7,0,-4168,-88,40
1773578916.836179,21.4,30.7,0,-4168,-88,40
1773578916.8569999,21.4,30.7,0,-4152,-104,48
1773578916.877568,21.4,30.7,0,-4152,-104,48
1773578916.8984525,21.4,30.7,0,-4152,-104,48
1773578916.918938,21.4,30.7,0,-4168,-92,40
1773578916.939231,21.4,30.7,0,-4168,-92,40
1773578916.9597816,21.4,30.7,0,-4192,-136,68
1773578916.980469,21.4,30.7,0,-4192,-136,68
1773578917.0036511,21.4,30.7,0,-4192,-136,68
1773578917.0243225,21.4,30.7,0,-4172,-128,48
1773578917.0448532,21.4,30.7,0,-4172,-128,48
1773578917.0657,21.4,30.7,0,-4188,-104,48
1773578917.0861847,21.4,30.7,0,-4188,-104,48
1773578917.1065664,21.4,30.7,0,-4188,-104,48
1773578917.1272361,21.4,30.7,0,-4172,-108,60
1773578917.147686,21.4,30.7,0,-4172,-108,60
1773578917.16828,21.4,30.7,0,-4156,-124,64
1773578917.1887116,21.4,30.7,0,-4156,-124,64
1773578917.2094357,21.4,30.7,0,-4156,-124,64
1773578917.2300024,21.4,30.7,0,-4160,-124,44
1773578917.250689,21.4,30.7,0,-4160,-124,44
1773578917.2714663,21.4,30.7,0,-4160,-124,44
1773578917.2921782,21.4,30.7,0,-4172,-112,72
1773578917.3129268,21.4,30.7,0,-4172,-112,72
1773578917.333551,21.4,30.7,0,-4176,-120,40
1773578917.3542404,21.4,30.7,0,-4176,-120,40
1773578917.3748853,21.4,30.7,0,-4176,-120,40
1773578917.3953252,21.4,30.7,0,-4188,-84,64
1773578917.4159942,21.4,30.7,0,-4188,-84,64
1773578917.436329,21.4,30.7,0,-4164,-92,36
1773578917.4575486,21.4,30.7,0,-4164,-92,36
1773578917.4780526,21.4,30.7,0,-4164,-92,36
1773578917.4989057,21.4,30.7,0,-4168,-96,68
1773578917.5192623,21.4,30.7,0,-4168,-96,68
1773578917.5395713,21.4,30.7,0,-4188,-96,60
1773578917.559841,21.4,30.7,0,-4188,-96,60
1773578917.5802348,21.4,30.7,0,-4188,-96,60
1773578917.6009073,21.4,30.7,0,-4188,-96,60
1773578917.62157,21.4,30.7,0,-4176,-104,60
1773578917.6424198,21.4,30.7,0,-4176,-104,60
1773578917.6628988,21.4,30.7,0,-4176,-104,60
1773578917.6866817,21.4,30.7,0,-4192,-108,48
1773578917.7074292,21.4,30.7,0,-4192,-108,48
1773578917.7277663,21.4,30.7,0,-4164,-112,48
1773578917.7485611,21.4,30.7,0,-4164,-112,48
1773578917.7692142,21.4,30.7,0,-4164,-112,48
1773578917.7896347,21.4,30.7,0,-4168,-104,56
1773578917.810116,21.4,30.7,0,-4168,-104,56
1773578917.8308089,21.4,30.7,0,-4160,-112,44
1773578917.8520548,21.4,30.7,0,-4160,-112,44
1773578917.872612,21.4,30.7,0,-4160,-112,44
1773578917.8932352,21.4,30.7,0,-4176,-112,52
1773578917.9139543,21.4,30.7,0,-4176,-112,52
1773578917.9343297,21.4,30.7,0,-4176,-112,52
1773578917.9546816,21.4,30.7,0,-4188,-124,40
1773578917.975394,21.4,30.7,0,-4188,-124,40
1773578917.9961193,21.4,30.7,0,-4156,-116,44
1773578918.0168018,21.4,30.7,0,-4156,-116,44
1773578918.03727,21.4,30.7,0,-4156,-116,44
1773578918.05776,21.4,30.7,0,-4176,-120,68
1773578918.0788321,21.4,30.7,0,-4176,-120,68
1773578918.0991268,21.4,30.7,0,-4180,-128,40
1773578918.1195424,21.4,30.7,0,-4180,-128,40
1773578918.1401756,21.4,30.7,0,-4180,-128,40
1773578918.1607428,21.4,30.7,0,-4156,-124,52
1773578918.181694,21.4,30.7,0,-4156,-124,52
1773578918.2025,21.4,30.7,0,-4168,-104,56
1773578918.2232575,21.4,30.7,0,-4168,-104,56
1773578918.2438617,21.4,30.7,0,-4168,-104,56
1773578918.2645206,21.4,30.7,0,-4184,-124,48
1773578918.2866821,21.4,30.7,0,-4184,-124,48
1773578918.3072276,21.4,30.7,0,-4156,-112,56
1773578918.3279533,21.4,30.7,0,-4156,-112,56
1773578918.3483338,21.4,30.7,0,-4156,-112,56
1773578918.3691916,21.4,30.7,0,-4168,-100,60
1773578918.3903475,21.4,30.7,0,-4168,-100,60
1773578918.4109774,21.4,30.7,0,-4168,-100,60
1773578918.4317572,21.4,30.7,0,-4188,-108,44
1773578918.4521694,21.4,30.7,0,-4188,-108,44
1773578918.472806,21.4,30.7,0,-4164,-108,52
1773578918.493391,21.4,30.7,0,-4164,-108,52
1773578918.514083,21.4,30.7,0,-4164,-108,52
1773578918.534924,21.4,30.7,0,-4184,-108,52
1773578918.5558364,21.4,30.7,0,-4184,-108,52
1773578918.575979,21.4,30.7,0,-4188,-108,60
1773578918.59646,21.4,30.7,0,-4188,-108,60
1773578918.6171296,21.4,30.7,0,-4188,-108,60
1773578918.6377578,21.4,30.7,0,-4164,-100,60
1773578918.6582618,21.4,30.7,0,-4164,-100,60
1773578918.678712,21.4,30.7,0,-4180,-104,48
1773578918.6994143,21.4,30.7,0,-4180,-104,48
1773578918.7200336,21.4,30.7,0,-4180,-104,48
1773578918.7408702,21.4,30.7,0,-4184,-88,52
1773578918.7614572,21.4,30.7,0,-4184,-88,52
1773578918.781783,21.4,30.7,0,-4184,-88,52
1773578918.8025827,21.4,30.7,0,-4180,-108,48
1773578918.823918,21.4,30.7,0,-4180,-108,48
1773578918.8442924,21.4,30.7,0,-4176,-108,60
1773578918.8650384,21.4,30.7,0,-4176,-108,60
1773578918.885828,21.4,30.7,0,-4176,-108,60
1773578918.9065468,21.4,30.7,0,-4176,-112,48
1773578918.9270196,21.4,30.7,0,-4176,-112,48
1773578918.9476545,21.4,30.7,0,-4196,-112,64
1773578918.9690475,21.4,30.7,0,-4196,-112,64
1773578918.989301,21.4,30.7,0,-4196,-112,64
1773578919.0099351,21.4,30.7,0,-4176,-112,64
1773578919.030653,21.4,30.7,0,-4176,-112,64
1773578919.0522447,21.4,30.7,0,-4176,-120,48
1773578919.0730343,21.4,30.7,0,-4176,-120,48
1773578919.093766,21.4,30.7,0,-4176,-120,48
1773578919.1141217,21.4,30.7,0,-4188,-96,60
1773578919.1350605,21.4,30.7,0,-4188,-96,60
1773578919.155663,21.4,30.7,0,-4188,-96,60
1773578919.1760812,21.4,30.7,0,-4172,-132,52
1773578919.1964269,21.4,30.7,0,-4172,-132,52
1773578919.217039,21.4,30.7,0,-4180,-116,60
1773578919.2373614,21.4,30.7,0,-4180,-116,60
1773578919.257827,21.4,30.7,0,-4180,-116,60
1773578919.2781734,21.4,30.7,0,-4172,-108,48
1773578919.2991686,21.4,30.7,0,-4172,-108,48
1773578919.320107,21.4,30.7,0,-4160,-112,68
1773578919.340817,21.4,30.7,0,-4160,-112,68
1773578919.3613777,21.4,30.7,0,-4160,-112,68
1773578919.382008,21.4,30.7,0,-4148,-132,56
1773578919.4032695,21.4,30.7,0,-4148,-132,56
1773578919.4238918,21.4,30.7,0,-4184,-104,80
1773578919.4444287,21.4,30.7,0,-4184,-104,80
1773578919.4649374,21.4,30.7,0,-4184,-104,80
1773578919.4858258,21.4,30.7,0,-4172,-128,56
1773578919.5067086,21.4,30.7,0,-4172,-128,56
1773578919.5271735,21.4,30.7,0,-4172,-128,56
1773578919.5475671,21.4,30.7,0,-4168,-108,36
1773578919.5689287,21.4,30.7,0,-4168,-108,36
1773578919.5894313,21.4,30.7,0,-4160,-112,64
1773578919.609775,21.4,30.7,0,-4160,-112,64
1773578919.6303675,21.4,30.7,0,-4160,-112,64
1773578919.6509776,21.4,30.7,0,-4160,-112,64
1773578919.671702,21.4,30.7,0,-4196,-116,60
1773578919.692216,21.4,30.7,0,-4196,-116,60
1773578919.7125268,21.4,30.7,0,-4184,-116,64
1773578919.7330346,21.4,30.7,0,-4184,-116,64
1773578919.7537925,21.4,30.7,0,-4184,-116,64
1773578919.774356,21.4,30.7,0,-4168,-116,40
1773578919.795217,21.4,30.7,0,-4168,-116,40
1773578919.815615,21.4,30.7,0,-4168,-116,40
1773578919.8363383,21.4,30.7,0,-4192,-80,52
1773578919.8574178,21.4,30.7,0,-4192,-80,52
1773578919.8781075,21.4,30.7,0,-4188,-116,40
1773578919.898957,21.4,30.7,0,-4188,-116,40
1773578919.9194663,21.4,30.7,0,-4188,-116,40
1773578919.9399545,21.4,30.7,0,-4176,-104,56
1773578919.9607372,21.4,30.7,0,-4176,-104,56
1773578919.9814487,21.4,30.7,0,-4180,-116,64
1773578920.0020077,21.4,30.7,0,-4180,-116,64
1773578920.0225823,21.4,30.7,0,-4180,-116,64
1773578920.0430906,21.4,30.7,0,-4176,-112,56
1773578920.0635777,21.4,30.7,0,-4176,-112,56
1773578920.0840373,21.4,30.7,0,-4172,-92,44
1773578920.1045232,21.4,30.7,0,-4172,-92,44
1773578920.1256347,21.4,30.7,0,-4172,-92,44
1773578920.1463168,21.4,30.7,0,-4192,-124,48
1773578920.1668396,21.4,30.7,0,-4192,-124,48
1773578920.1878824,21.4,30.7,0,-4192,-124,48
1773578920.2088263,21.4,30.7,0,-4168,-112,64
1773578920.2294648,21.4,30.7,0,-4168,-112,64
1773578920.249921,21.4,30.7,0,-4168,-120,72
1773578920.2704277,21.4,30.7,0,-4168,-120,72
1773578920.2910857,21.4,30.7,0,-4168,-120,72
1773578920.3116186,21.4,30.7,0,-4180,-124,68
1773578920.3323812,21.4,30.7,0,-4180,-124,68
1773578920.352734,21.4,30.7,0,-4172,-92,48
1773578920.3732967,21.4,30.7,0,-4172,-92,48
1773578920.3935688,21.4,30.7,0,-4172,-92,48
1773578920.4139075,21.4,30.7,0,-4152,-120,60
1773578920.4343278,21.4,30.7,0,-4152,-120,60
1773578920.4551165,21.4,30.7,0,-4188,-100,56
1773578920.4758394,21.4,30.7,0,-4188,-100,56
1773578920.4965813,21.4,30.7,0,-4188,-100,56
1773578920.5176232,21.4,30.7,0,-4180,-108,44
1773578920.5392668,21.4,30.7,0,-4180,-108,44
1773578920.5598254,21.4,30.7,0,-4180,-108,44
1773578920.5804932,21.4,30.7,0,-4180,-112,52
1773578920.6017873,21.4,30.7,0,-4180,-112,52
1773578920.6224375,21.4,30.7,0,-4156,-116,44
1773578920.6432014,21.4,30.7,0,-4156,-116,44
1773578920.6636317,21.4,30.7,0,-4156,-116,44
1773578920.685131,21.4,30.7,0,-4160,-92,40
1773578920.7058191,21.4,30.7,0,-4160,-92,40
1773578920.7264762,21.4,30.7,0,-4140,-108,60
1773578920.7472045,21.4,30.7,0,-4140,-108,60
1773578920.7690933,21.4,30.7,0,-4140,-108,60
1773578920.7902725,21.4,30.7,0,-4176,-116,64
1773578920.810955,21.4,30.7,0,-4176,-116,64
1773578920.8313754,21.4,30.7,0,-4160,-84,68
1773578920.852546,21.4,30.7,0,-4160,-84,68
1773578920.873199,21.4,30.7,0,-4160,-84,68
1773578920.894373,21.4,30.7,0,-4188,-112,72
1773578920.9148076,21.4,30.7,0,-4188,-112,72
1773578920.9364939,21.4,30.7,0,-4168,-88,52
1773578920.9572523,21.4,30.7,0,-4168,-88,52
1773578920.9779234,21.4,30.7,0,-4168,-88,52
1773578920.9983296,21.4,30.7,0,-4180,-96,56
1773578921.0201573,21.4,30.7,0,-4180,-96,56
1773578921.040613,21.4,30.7,0,-4192,-104,64
1773578921.0615306,21.4,30.7,0,-4192,-104,64
1773578921.0821743,21.4,30.7,0,-4192,-104,64
1773578921.1023424,21.4,30.7,0,-4180,-120,40
1773578921.1229281,21.4,30.7,0,-4180,-120,40
1773578921.143599,21.4,30.7,0,-4180,-120,40
1773578921.164226,21.4,30.7,0,-4152,-104,48
1773578921.1848953,21.4,30.7,0,-4152,-104,48
1773578921.205398,21.4,30.7,0,-4184,-128,60
1773578921.2260263,21.4,30.7,0,-4184,-128,60
1773578921.2465298,21.4,30.7,0,-4184,-128,60
1773578921.2670305,21.4,30.7,0,-4188,-116,44
1773578921.2871923,21.4,30.7,0,-4188,-116,44
1773578921.307904,21.4,30.7,0,-4176,-116,52
1773578921.328619,21.4,30.7,0,-4176,-116,52
1773578921.3492577,21.4,30.7,0,-4176,-116,52
1773578921.3696713,21.4,30.7,0,-4172,-76,76
1773578921.39037,21.4,30.7,0,-4172,-76,76
1773578921.4106898,21.4,30.7,0,-4180,-104,48
1773578921.4310744,21.4,30.7,0,-4180,-104,48
1773578921.4537647,21.4,30.7,0,-4180,-104,48
1773578921.474473,21.4,30.7,0,-4164,-104,60
1773578921.4952166,21.4,30.7,0,-4164,-104,60
1773578921.5159059,21.4,30.7,0,-4172,-108,60
1773578921.5364695,21.4,30.7,0,-4172,-108,60
1773578921.5568123,21.4,30.7,0,-4172,-108,60
1773578921.5771894,21.4,30.7,0,-4184,-100,60
1773578921.5979898,21.4,30.7,0,-4184,-100,60
1773578921.618437,21.4,30.7,0,-4184,-100,60
1773578921.639015,21.4,30.7,0,-4192,-104,36
1773578921.6595805,21.4,30.7,0,-4192,-104,36
1773578921.6803062,21.4,30.7,0,-4192,-104,36
1773578921.7013412,21.4,30.7,0,-4176,-112,60
1773578921.7232687,21.4,30.7,0,-4176,-112,60
1773578921.7435312,21.4,30.7,0,-4176,-112,60
1773578921.763993,21.4,30.7,0,-4172,-108,64
1773578921.7847188,21.4,30.7,0,-4172,-108,64
1773578921.8068197,21.4,30.7,0,-4156,-116,56
1773578921.8274517,21.4,30.7,0,-4156,-116,56
1773578921.8479412,21.4,30.7,0,-4156,-116,56
1773578921.8689442,21.4,30.7,0,-4168,-108,56
1773578921.88948,21.4,30.7,0,-4168,-108,56
1773578921.910035,21.4,30.7,0,-4168,-108,56
1773578921.9324849,21.4,30.7,0,-4184,-104,68
1773578921.9531233,21.4,30.7,0,-4184,-104,68
1773578921.973543,21.4,30.7,0,-4184,-108,52
1773578921.9940186,21.4,30.7,0,-4184,-108,52
1773578922.0146646,21.4,30.7,0,-4184,-108,52
1773578922.0351498,21.4,30.7,0,-4188,-132,56
1773578922.0557702,21.4,30.7,0,-4188,-132,56
1773578922.0761237,21.4,30.7,0,-4180,-120,60
1773578922.0968094,21.4,30.7,0,-4180,-120,60
1773578922.1171799,21.4,30.7,0,-4180,-120,60
1773578922.138033,21.4,30.7,0,-4180,-104,48
1773578922.1594465,21.4,30.7,0,-4180,-104,48
1773578922.1798627,21.4,30.7,0,-4168,-128,48
1773578922.2008593,21.4,30.7,0,-4168,-128,48
1773578922.2212586,21.4,30.7,0,-4168,-128,48
1773578922.2419822,21.4,30.7,0,-4192,-100,52
1773578922.2624843,21.4,30.7,0,-4192,-100,52
1773578922.282857,21.4,30.7,0,-4192,-100,52
1773578922.303526,21.4,30.7,0,-4176,-116,68
1773578922.3241098,21.4,30.7,0,-4176,-116,68
1773578922.3448339,21.4,30.7,0,-4180,-92,48
1773578922.365476,21.4,30.7,0,-4180,-92,48
1773578922.386102,21.4,30.7,0,-4180,-92,48
1773578922.4064634,21.4,30.7,0,-4184,-104,72
1773578922.426805,21.4,30.7,0,-4184,-104,72
1773578922.4474661,21.4,30.7,0,-4180,-124,60
1773578922.4686527,21.4,30.7,0,-4180,-124,60
1773578922.489539,21.4,30.7,0,-4180,-124,60
1773578922.5102282,21.4,30.7,0,-4176,-104,52
1773578922.5309696,21.4,30.7,0,-4176,-104,52
1773578922.5514386,21.4,30.7,0,-4176,-100,64
1773578922.5741103,21.4,30.7,0,-4176,-100,64
1773578922.594466,21.4,30.7,0,-4176,-100,64
1773578922.6155677,21.4,30.7,0,-4192,-120,56
1773578922.6357512,21.4,30.7,0,-4192,-120,56
1773578922.6564949,21.4,30.7,0,-4184,-108,52
1773578922.6773362,21.4,30.7,0,-4184,-108,52
1773578922.6979866,21.4,30.7,0,-4184,-108,52
1773578922.7189965,21.4,30.7,0,-4176,-120,56
1773578922.7394626,21.4,30.7,0,-4176,-120,56
1773578922.7598476,21.4,30.7,0,-4176,-120,56
1773578922.7805307,21.4,30.7,0,-4152,-124,60
1773578922.8010643,21.4,30.7,0,-4152,-124,60
1773578922.8223736,21.4,30.7,0,-4188,-116,64
1773578922.8428974,21.4,30.7,0,-4188,-116,64
1773578922.8633873,21.4,30.7,0,-4188,-116,64
1773578922.8842678,21.4,30.7,0,-4164,-104,56
1773578922.904834,21.4,30.7,0,-4164,-104,56
1773578922.925507,21.4,30.7,0,-4180,-104,64
1773578922.9460797,21.4,30.7,0,-4180,-104,64
1773578922.9666557,21.4,30.7,0,-4180,-104,64
1773578922.9874148,21.4,30.7,0,-4184,-92,80
1773578923.008206,21.4,30.7,0,-4184,-92,80
1773578923.0288076,21.4,30.7,0,-4172,-120,40
1773578923.0491831,21.4,30.7,0,-4172,-120,40
1773578923.069755,21.4,30.7,0,-4172,-120,40
1773578923.0904858,21.4,30.7,0,-4164,-116,44
1773578923.1111214,21.4,30.7,0,-4164,-116,44
1773578923.131706,21.4,30.7,0,-4164,-116,44
1773578923.1523454,21.4,30.7,0,-4168,-120,48
1773578923.1730483,21.4,30.7,0,-4168,-120,48
1773578923.1934206,21.4,30.7,0,-4172,-116,52
1773578923.213954,21.4,30.7,0,-4172,-116,52
1773578923.235175,21.4,30.7,0,-4172,-116,52
1773578923.2554789,21.4,30.7,0,-4152,-116,56
1773578923.2760694,21.4,30.7,0,-4152,-116,56
1773578923.2966416,21.4,30.7,0,-4168,-104,40
1773578923.3172362,21.4,30.7,0,-4168,-104,40
1773578923.3376822,21.4,30.7,0,-4168,-104,40
1773578923.3581343,21.4,30.7,0,-4192,-144,64
1773578923.3785641,21.4,30.7,0,-4192,-144,64
1773578923.399107,21.4,30.7,0,-4176,-128,68
1773578923.419911,21.4,30.7,0,-4176,-128,68
1773578923.4407783,21.4,30.7,0,-4176,-128,68
1773578923.4611235,21.4,30.7,0,-4184,-112,64
1773578923.4819145,21.4,30.7,0,-4184,-112,64
1773578923.5025427,21.4,30.7,0,-4184,-112,64
1773578923.5231516,21.4,30.7,0,-4160,-104,96
1773578923.5438623,21.4,30.7,0,-4160,-104,96
1773578923.5643325,21.4,30.7,0,-4172,-116,64
1773578923.586608,21.4,30.7,0,-4172,-116,64
1773578923.6071687,21.4,30.7,0,-4172,-116,64
1773578923.6278617,21.4,30.7,0,-4160,-120,44
1773578923.6482763,21.4,30.7,0,-4160,-120,44
1773578923.669002,21.4,30.7,0,-4176,-108,60
1773578923.6897264,21.4,30.7,0,-4176,-108,60
1773578923.710182,21.4,30.7,0,-4176,-108,60
1773578923.7305686,21.4,30.7,0,-4176,-108,60
1773578923.7508798,21.4,30.7,0,-4180,-116,60
1773578923.7713983,21.4,30.7,0,-4180,-116,60
1773578923.7918065,21.4,30.7,0,-4180,-116,60
1773578923.8125541,21.4,30.7,0,-4176,-128,60
1773578923.8332264,21.4,30.7,0,-4176,-128,60
1773578923.8542862,21.4,30.7,0,-4184,-84,48
1773578923.8748987,21.4,30.7,0,-4184,-84,48
1773578923.8955204,21.4,30.7,0,-4184,-84,48
1773578923.916353,21.4,30.7,0,-4176,-120,64
1773578923.936942,21.4,30.7,0,-4176,-120,64
1773578923.9574878,21.4,30.7,0,-4180,-96,56
1773578923.978155,21.4,30.7,0,-4180,-96,56
1773578923.9986875,21.4,30.7,0,-4180,-96,56
1773578924.0194716,21.4,30.7,0,-4192,-104,76
1773578924.040203,21.4,30.7,0,-4192,-104,76
1773578924.0605307,21.4,30.7,0,-4156,-120,60
1773578924.081298,21.4,30.7,0,-4156,-120,60
1773578924.1067348,21.4,30.7,0,-4156,-120,60
1773578924.1273122,21.4,30.7,0,-4184,-112,60
1773578924.1483626,21.4,30.7,0,-4184,-112,60
1773578924.1701407,21.4,30.7,0,-4192,-120,48
1773578924.1904333,21.4,30.7,0,-4192,-120,48
1773578924.2108965,21.4,30.7,0,-4192,-120,48
1773578924.2314987,21.4,30.7,0,-4172,-116,60
1773578924.25236,21.4,30.7,0,-4172,-116,60
1773578924.2727413,21.4,30.7,0,-4180,-120,72
1773578924.2935052,21.4,30.7,0,-4180,-120,72
1773578924.314104,21.4,30.7,0,-4180,-120,72
1773578924.3347926,21.4,30.7,0,-4160,-112,68
1773578924.3553598,21.4,30.7,0,-4160,-112,68
1773578924.3761098,21.4,30.7,0,-4160,-112,68
1773578924.3967795,21.4,30.7,0,-4192,-104,52
1773578924.417261,21.4,30.7,0,-4192,-104,52
1773578924.437749,21.4,30.7,0,-4172,-108,48
1773578924.4584453,21.4,30.7,0,-4172,-108,48
1773578924.4787042,21.4,30.7,0,-4172,-108,48
1773578924.499574,21.4,30.7,0,-4164,-116,56
1773578924.5197139,21.4,30.7,0,-4164,-116,56
1773578924.5404608,21.4,30.7,0,-4188,-92,44
1773578924.561177,21.4,30.7,0,-4188,-92,44
1773578924.5817852,21.4,30.7,0,-4188,-92,44
1773578924.6022754,21.4,30.7,0,-4180,-124,56
1773578924.6228673,21.4,30.7,0,-4180,-124,56
1773578924.6434846,21.4,30.7,0,-4180,-124,56
1773578924.6640658,21.4,30.7,0,-4172,-116,60
1773578924.6856272,21.4,30.7,0,-4172,-116,60
1773578924.7064743,21.4,30.7,0,-4168,-104,72
1773578924.7269537,21.4,30.7,0,-4168,-104,72
1773578924.7476501,21.4,30.7,0,-4168,-104,72
1773578924.7693083,21.4,30.7,0,-4168,-100,68
1773578924.7896426,21.4,30.7,0,-4168,-100,68
1773578924.8103054,21.4,30.7,0,-4172,-104,60
1773578924.8310199,21.4,30.7,0,-4172,-104,60
1773578924.8522184,21.4,30.7,0,-4172,-104,60
1773578924.8728216,21.4,30.7,0,-4180,-88,48
1773578924.8932056,21.4,30.7,0,-4180,-88,48
1773578924.91371,21.4,30.7,0,-4176,-92,68
1773578924.9348667,21.4,30.7,0,-4176,-92,68
1773578924.9552212,21.4,30.7,0,-4176,-92,68
1773578924.9755173,21.4,30.7,0,-4180,-100,28
1773578924.9959896,21.4,30.7,0,-4180,-100,28
1773578925.016349,21.4,30.7,0,-4180,-100,68
1773578925.036976,21.4,30.7,0,-4180,-100,68
1773578925.0574565,21.4,30.7,0,-4180,-100,68
1773578925.0779169,21.4,30.7,0,-4188,-104,52
1773578925.0981407,21.4,30.7,0,-4188,-104,52
1773578925.118515,21.4,30.7,0,-4188,-104,52
1773578925.1389709,21.4,30.7,0,-4180,-116,52
1773578925.159342,21.4,30.7,0,-4180,-116,52
1773578925.1798565,21.4,30.7,0,-4192,-108,40
1773578925.2006004,21.4,30.7,0,-4192,-108,40
1773578925.2212183,21.4,30.7,0,-4192,-108,40
1773578925.2417884,21.4,30.7,0,-4164,-108,60
1773578925.2626562,21.4,30.7,0,-4164,-108,60
1773578925.2829432,21.4,30.7,0,-4180,-100,48
1773578925.303515,21.4,30.7,0,-4180,-100,48
1773578925.3238764,21.4,30.7,0,-4180,-100,48
1773578925.3445277,21.4,30.7,0,-4184,-108,60
1773578925.3647385,21.4,30.7,0,-4184,-108,60
1773578925.3852391,21.4,30.7,0,-4184,-108,60
1773578925.4055746,21.4,30.7,0,-4172,-116,60
1773578925.4263053,21.4,30.7,0,-4172,-116,60
1773578925.4470296,21.4,30.7,0,-4180,-100,56
1773578925.468242,21.4,30.7,0,-4180,-100,56
1773578925.4889715,21.4,30.7,0,-4180,-100,56
1773578925.5094507,21.4,30.7,0,-4160,-116,68
1773578925.5305579,21.4,30.7,0,-4160,-116,68
1773578925.55089,21.4,30.7,0,-4172,-140,60
1773578925.573586,21.4,30.7,0,-4172,-140,60
1773578925.5942345,21.4,30.7,0,-4172,-140,60
1773578925.6151412,21.4,30.7,0,-4172,-108,52
1773578925.6363177,21.4,30.7,0,-4172,-108,52
1773578925.6570292,21.4,30.7,0,-4176,-112,60
1773578925.677307,21.4,30.7,0,-4176,-112,60
1773578925.6979053,21.4,30.7,0,-4176,-112,60
1773578925.71887,21.4,30.7,0,-4176,-104,48
1773578925.7395377,21.4,30.7,0,-4176,-104,48
1773578925.7602048,21.4,30.7,0,-4176,-104,48
1773578925.7806218,21.4,30.7,0,-4176,-104,48
1773578925.8026283,21.4,30.6,0,-4176,-100,44
1773578925.8232203,21.4,30.6,0,-4176,-100,44
1773578925.843624,21.4,30.6,0,-4184,-88,52
1773578925.8639452,21.4,30.6,0,-4184,-88,52
1773578925.8849533,21.4,30.6,0,-4184,-88,52
1773578925.9056876,21.4,30.6,0,-4192,-112,56
1773578925.9259682,21.4,30.6,0,-4192,-112,56
1773578925.9463716,21.4,30.6,0,-4192,-96,48
1773578925.9670615,21.4,30.6,0,-4192,-96,48
1773578925.9872935,21.4,30.6,0,-4192,-96,48
1773578926.0076435,21.4,30.6,0,-4180,-112,48
1773578926.0284927,21.4,30.6,0,-4180,-112,48
1773578926.0488505,21.4,30.6,0,-4168,-144,60
1773578926.069503,21.4,30.6,0,-4168,-144,60
1773578926.08982,21.4,30.6,0,-4168,-144,60
1773578926.1104457,21.4,30.6,0,-4184,-116,64
1773578926.1308665,21.4,30.6,0,-4184,-116,64
1773578926.1528082,21.4,30.6,0,-4184,-116,64
1773578926.1732652,21.4,30.6,0,-4172,-116,48
1773578926.1942484,21.4,30.6,0,-4172,-116,48
1773578926.2147326,21.4,30.6,0,-4156,-104,56
1773578926.2354114,21.4,30.6,0,-4156,-104,56
1773578926.2563698,21.4,30.6,0,-4156,-104,56
1773578926.2770815,21.4,30.6,0,-4180,-112,60
1773578926.29774,21.4,30.6,0,-4180,-112,60
1773578926.3193865,21.4,30.6,0,-4180,-96,56
1773578926.3401906,21.4,30.6,0,-4180,-96,56
1773578926.3606133,21.4,30.6,0,-4180,-96,56
1773578926.3811648,21.4,30.6,0,-4188,-120,60
1773578926.4023519,21.4,30.6,0,-4188,-120,60
1773578926.423056,21.4,30.6,0,-4184,-96,68
1773578926.4432893,21.4,30.6,0,-4184,-96,68
1773578926.463897,21.4,30.6,0,-4184,-96,68
1773578926.4846442,21.4,30.6,0,-4184,-120,52
1773578926.5055234,21.4,30.6,0,-4184,-120,52
1773578926.525757,21.4,30.6,0,-4184,-120,52
1773578926.5466108,21.4,30.6,0,-4168,-132,72
1773578926.5670853,21.4,30.6,0,-4168,-132,72
1773578926.5878382,21.4,30.6,0,-4184,-112,40
1773578926.6083524,21.4,30.6,0,-4184,-112,40
1773578926.6288502,21.4,30.6,0,-4184,-112,40
1773578926.6491582,21.4,30.6,0,-4176,-92,44
1773578926.6699498,21.4,30.6,0,-4176,-92,44
1773578926.6904309,21.4,30.6,0,-4184,-120,36
1773578926.7111363,21.4,30.6,0,-4184,-120,36
1773578926.7315495,21.4,30.6,0,-4184,-120,36
1773578926.7522223,21.4,30.6,0,-4164,-120,56
1773578926.7726843,21.4,30.6,0,-4164,-120,56
1773578926.7932415,21.4,30.6,0,-4176,-124,60
1773578926.8136663,21.4,30.6,0,-4176,-124,60
1773578926.8340414,21.4,30.6,0,-4176,-124,60
1773578926.8543186,21.4,30.6,0,-4176,-112,52
1773578926.8750434,21.4,30.6,0,-4176,-112,52
1773578926.8956764,21.4,30.6,0,-4176,-112,52
1773578926.917699,21.4,30.6,0,-4156,-100,60
1773578926.9391375,21.4,30.6,0,-4156,-100,60
1773578926.9596078,21.4,30.6,0,-4176,-116,52
1773578926.9800284,21.4,30.6,0,-4176,-116,52
1773578927.000507,21.4,30.6,0,-4176,-116,52
1773578927.0208163,21.4,30.6,0,-4192,-104,48
1773578927.0415442,21.4,30.6,0,-4192,-104,48
1773578927.061786,21.4,30.6,0,-4180,-100,28
1773578927.0829096,21.4,30.6,0,-4180,-100,28
1773578927.103385,21.4,30.6,0,-4180,-100,28
1773578927.1238108,21.4,30.6,0,-4184,-116,60
1773578927.1442928,21.4,30.6,0,-4184,-116,60
1773578927.1647136,21.4,30.6,0,-4176,-88,48
1773578927.186427,21.4,30.6,0,-4176,-88,48
1773578927.2071834,21.4,30.6,0,-4176,-88,48
1773578927.227519,21.4,30.6,0,-4172,-104,52
1773578927.248061,21.4,30.6,0,-4172,-104,52
1773578927.2695975,21.4,30.6,0,-4188,-100,48
1773578927.289998,21.4,30.6,0,-4188,-100,48
1773578927.3107018,21.4,30.6,0,-4188,-100,48
1773578927.3311925,21.4,30.6,0,-4176,-108,60
1773578927.3523915,21.4,30.6,0,-4176,-108,60
1773578927.3729465,21.4,30.6,0,-4176,-108,60
1773578927.393319,21.4,30.6,0,-4180,-116,52
1773578927.4139142,21.4,30.6,0,-4180,-116,52
1773578927.435208,21.4,30.6,0,-4176,-112,40
1773578927.455802,21.4,30.6,0,-4176,-112,40
1773578927.4760845,21.4,30.6,0,-4176,-112,40
1773578927.4965942,21.4,30.6,0,-4188,-100,64
1773578927.5169106,21.4,30.6,0,-4188,-100,64
1773578927.537414,21.4,30.6,0,-4160,-132,40
1773578927.557927,21.4,30.6,0,-4160,-132,40
1773578927.578221,21.4,30.6,0,-4160,-132,40
1773578927.5985065,21.4,30.6,0,-4184,-116,48
1773578927.618805,21.4,30.6,0,-4184,-116,48
1773578927.6392543,21.4,30.6,0,-4184,-116,48
1773578927.6598637,21.4,30.6,0,-4184,-88,44
1773578927.6804798,21.4,30.6,0,-4184,-88,44
1773578927.700874,21.4,30.6,0,-4180,-124,44
1773578927.721092,21.4,30.6,0,-4180,-124,44
1773578927.7417498,21.4,30.6,0,-4180,-124,44
1773578927.76247,21.4,30.6,0,-4144,-116,76
1773578927.7827754,21.4,30.6,0,-4144,-116,76
1773578927.8032866,21.4,30.6,0,-4144,-116,76
1773578927.8239026,21.4,30.6,0,-4144,-116,76
1773578927.8446188,21.4,30.6,0,-4180,-104,60
1773578927.8649604,21.4,30.6,0,-4180,-104,60
1773578927.885992,21.4,30.6,0,-4168,-124,48
1773578927.9068346,21.4,30.6,0,-4168,-124,48
1773578927.9275653,21.4,30.6,0,-4168,-124,48
1773578927.9480617,21.4,30.6,0,-4164,-112,52
1773578927.9687114,21.4,30.6,0,-4164,-112,52
1773578927.9891744,21.4,30.6,0,-4172,-88,48
1773578928.0098283,21.4,30.6,0,-4172,-88,48
1773578928.0305095,21.4,30.6,0,-4172,-88,48
1773578928.0522811,21.4,30.6,0,-4176,-136,64
1773578928.0725312,21.4,30.6,0,-4176,-136,64
1773578928.0930846,21.4,30.6,0,-4156,-88,52
1773578928.1136093,21.4,30.6,0,-4156,-88,52
1773578928.1342268,21.4,30.6,0,-4156,-88,52
1773578928.1546957,21.4,30.6,0,-4188,-128,76
1773578928.1753595,21.4,30.6,0,-4188,-128,76
1773578928.1963847,21.4,30.6,0,-4188,-128,76
1773578928.2169962,21.4,30.6,0,-4180,-124,64
1773578928.237615,21.4,30.6,0,-4180,-124,64
1773578928.257837,21.4,30.6,0,-4180,-88,56
1773578928.2782302,21.4,30.6,0,-4180,-88,56
1773578928.2987351,21.4,30.6,0,-4180,-88,56
1773578928.319868,21.4,30.6,0,-4164,-128,52
1773578928.3403213,21.4,30.6,0,-4164,-128,52
1773578928.3610618,21.4,30.6,0,-4172,-108,60
1773578928.3813813,21.4,30.6,0,-4172,-108,60
1773578928.40159,21.4,30.6,0,-4172,-108,60
1773578928.4218352,21.4,30.6,0,-4184,-100,60
1773578928.4423406,21.4,30.6,0,-4184,-100,60
1773578928.4626472,21.4,30.6,0,-4168,-108,44
1773578928.4834657,21.4,30.6,0,-4168,-108,44
1773578928.5048268,21.4,30.6,0,-4168,-108,44
1773578928.5255954,21.4,30.6,0,-4164,-132,56
1773578928.5466163,21.4,30.6,0,-4164,-132,56
1773578928.5687757,21.4,30.6,0,-4188,-96,60
1773578928.5898316,21.4,30.6,0,-4188,-96,60
1773578928.6113517,21.4,30.6,0,-4188,-96,60
1773578928.6320806,21.4,30.6,0,-4168,-108,64
1773578928.6527503,21.4,30.6,0,-4168,-108,64
1773578928.6740735,21.4,30.6,0,-4164,-120,60
1773578928.6946535,21.4,30.6,0,-4164,-120,60
1773578928.715897,21.4,30.6,0,-4164,-120,60
1773578928.7370641,21.4,30.6,0,-4184,-132,72
1773578928.757371,21.4,30.6,0,-4184,-132,72
1773578928.7779639,21.4,30.6,0,-4184,-132,72
1773578928.798378,21.4,30.6,0,-4200,-84,60
1773578928.8193502,21.4,30.6,0,-4200,-84,60
1773578928.8396676,21.4,30.6,0,-4172,-120,44
1773578928.8600876,21.4,30.6,0,-4172,-120,44
1773578928.88069,21.4,30.6,0,-4172,-120,44
1773578928.9026008,21.4,30.6,0,-4172,-120,64
1773578928.9235618,21.4,30.6,0,-4172,-120,64
1773578928.9443324,21.4,30.6,0,-4192,-92,24
1773578928.96474,21.4,30.6,0,-4192,-92,24
1773578928.9851987,21.4,30.6,0,-4192,-92,24
1773578929.0058787,21.4,30.6,0,-4172,-136,60
1773578929.0262234,21.4,30.6,0,-4172,-136,60
1773578929.0467606,21.4,30.6,0,-4148,-108,56
1773578929.0698638,21.4,30.6,0,-4148,-108,56
1773578929.090282,21.4,30.6,0,-4148,-108,56
1773578929.111015,21.4,30.6,0,-4184,-112,48
1773578929.1329427,21.4,30.6,0,-4184,-112,48
1773578929.1534638,21.4,30.6,0,-4156,-124,64
1773578929.1740284,21.4,30.6,0,-4156,-124,64
1773578929.1943824,21.4,30.6,0,-4156,-124,64
1773578929.2154586,21.4,30.6,0,-4180,-120,48
1773578929.235932,21.4,30.6,0,-4180,-120,48
1773578929.2571564,21.4,30.6,0,-4180,-120,48
1773578929.278262,21.4,30.6,0,-4172,-84,60
1773578929.2989073,21.4,30.6,0,-4172,-84,60
1773578929.320176,21.4,30.6,0,-4176,-120,80
1773578929.3407466,21.4,30.6,0,-4176,-120,80
1773578929.361867,21.4,30.6,0,-4176,-120,80
1773578929.3828173,21.4,30.6,0,-4176,-104,52
1773578929.4032166,21.4,30.6,0,-4176,-104,52
1773578929.4235117,21.4,30.6,0,-4176,-112,52
1773578929.4449387,21.4,30.6,0,-4176,-112,52
1773578929.4657528,21.4,30.6,0,-4176,-112,52
1773578929.486061,21.4,30.6,0,-4184,-104,48
1773578929.5069396,21.4,30.6,0,-4184,-104,48
1773578929.5275905,21.4,30.6,0,-4184,-120,36
1773578929.5492191,21.4,30.6,0,-4184,-120,36
1773578929.569587,21.4,30.6,0,-4184,-120,36
1773578929.5902426,21.4,30.6,0,-4196,-108,68
1773578929.6109478,21.4,30.6,0,-4196,-108,68
1773578929.631261,21.4,30.6,0,-4192,-100,68
1773578929.6516166,21.4,30.6,0,-4192,-100,68
1773578929.6731136,21.4,30.6,0,-4192,-100,68
1773578929.6937873,21.4,30.6,0,-4188,-108,76
1773578929.7144773,21.4,30.6,0,-4188,-108,76
1773578929.7349749,21.4,30.6,0,-4188,-108,76
1773578929.7557373,21.4,30.6,0,-4172,-136,64
1773578929.7764382,21.4,30.6,0,-4172,-136,64
1773578929.7975123,21.4,30.6,0,-4184,-88,44
1773578929.8192327,21.4,30.6,0,-4184,-88,44
1773578929.8398285,21.4,30.6,0,-4184,-88,44
1773578929.8605492,21.4,30.6,0,-4184,-88,44
1773578929.8813672,21.4,30.6,0,-4164,-96,36
1773578929.9024591,21.4,30.6,0,-4164,-96,36
1773578929.9230866,21.4,30.6,0,-4192,-132,60
1773578929.9436796,21.4,30.6,0,-4192,-132,60
1773578929.9645627,21.4,30.6,0,-4192,-132,60
1773578929.9863126,21.4,30.6,0,-4184,-100,60
1773578930.0067904,21.4,30.6,0,-4184,-100,60
1773578930.0274594,21.4,30.6,0,-4156,-124,60
1773578930.048123,21.4,30.6,0,-4156,-124,60
1773578930.069061,21.4,30.6,0,-4156,-124,60
1773578930.0895307,21.4,30.6,0,-4180,-112,36
1773578930.1101484,21.4,30.6,0,-4180,-112,36
1773578930.1307693,21.4,30.6,0,-4180,-112,36
1773578930.1524332,21.4,30.6,0,-4164,-104,56
1773578930.1730628,21.4,30.6,0,-4164,-104,56
1773578930.193336,21.4,30.6,0,-4176,-116,60
1773578930.213948,21.4,30.6,0,-4176,-116,60
1773578930.2342665,21.4,30.6,0,-4176,-116,60
1773578930.2549114,21.4,30.6,0,-4188,-108,36
1773578930.2756915,21.4,30.6,0,-4188,-108,36
1773578930.2962599,21.4,30.6,0,-4168,-124,68
1773578930.3166895,21.4,30.6,0,-4168,-124,68
1773578930.3376808,21.4,30.6,0,-4168,-124,68
1773578930.358411,21.4,30.6,0,-4172,-128,60
1773578930.3789926,21.4,30.6,0,-4172,-128,60
1773578930.3994875,21.4,30.6,0,-4180,-92,60
1773578930.4200916,21.4,30.6,0,-4180,-92,60
1773578930.4406922,21.4,30.6,0,-4180,-92,60
1773578930.4615505,21.4,30.6,0,-4188,-128,24
1773578930.4822772,21.4,30.6,0,-4188,-128,24
1773578930.504156,21.4,30.6,0,-4192,-104,40
1773578930.5247061,21.4,30.6,0,-4192,-104,40
1773578930.546301,21.4,30.6,0,-4192,-104,40
1773578930.5709567,21.4,30.6,0,-4188,-112,32
1773578930.5915627,21.4,30.6,0,-4188,-112,32
1773578930.6122081,21.4,30.6,0,-4164,-124,48
1773578930.6328387,21.4,30.6,0,-4164,-124,48
1773578930.6536877,21.4,30.6,0,-4164,-124,48
1773578930.674454,21.4,30.6,0,-4192,-104,60
1773578930.6957016,21.4,30.6,0,-4192,-104,60
1773578930.7161782,21.4,30.6,0,-4184,-116,72
1773578930.7366455,21.4,30.6,0,-4184,-116,72
1773578930.757475,21.4,30.6,0,-4184,-116,72
1773578930.7787106,21.4,30.6,0,-4192,-104,68
1773578930.7994056,21.4,30.6,0,-4192,-104,68
1773578930.8197706,21.4,30.6,0,-4192,-104,68
1773578930.8403013,21.4,30.6,0,-4168,-132,48
1773578930.8609986,21.4,30.6,0,-4168,-132,48
1773578930.881964,21.4,30.6,0,-4160,-104,48
1773578930.9023979,21.4,30.6,0,-4160,-104,48
1773578930.923005,21.4,30.6,0,-4160,-104,48
1773578930.9442995,21.4,30.6,0,-4184,-104,56
1773578930.9647682,21.4,30.6,0,-4184,-104,56
1773578930.9864926,21.4,30.6,0,-4164,-116,68
1773578931.0071964,21.4,30.6,0,-4164,-116,68
1773578931.0280051,21.4,30.6,0,-4164,-116,68
1773578931.048973,21.4,30.6,0,-4180,-108,64
1773578931.0691857,21.4,30.6,0,-4180,-108,64
1773578931.0897331,21.4,30.6,0,-4176,-132,56
1773578931.1099935,21.4,30.6,0,-4176,-132,56
1773578931.130881,21.4,30.6,0,-4176,-132,56
1773578931.1521811,21.4,30.6,0,-4180,-80,60
1773578931.172819,21.4,30.6,0,-4180,-80,60
1773578931.1934576,21.4,30.6,0,-4180,-108,48
1773578931.2141957,21.4,30.6,0,-4180,-108,48
1773578931.2362313,21.4,30.6,0,-4180,-108,48
1773578931.2568297,21.4,30.6,0,-4164,-104,52
1773578931.2771933,21.4,30.6,0,-4164,-104,52
1773578931.297787,21.4,30.6,0,-4164,-104,52
1773578931.3200066,21.4,30.6,0,-4180,-84,44
1773578931.3405747,21.4,30.6,0,-4180,-84,44
1773578931.3620486,21.4,30.6,0,-4188,-92,52
1773578931.3830006,21.4,30.6,0,-4188,-92,52
1773578931.404358,21.4,30.6,0,-4188,-92,52
1773578931.4269054,21.4,30.6,0,-4148,-124,60
1773578931.4478652,21.4,30.6,0,-4148,-124,60
1773578931.469296,21.4,30.6,0,-4152,-96,56
1773578931.4896352,21.4,30.6,0,-4152,-96,56
1773578931.5103617,21.4,30.6,0,-4152,-96,56
1773578931.5306783,21.4,30.6,0,-4168,-132,68
1773578931.5516393,21.4,30.6,0,-4168,-132,68
1773578931.5736694,21.4,30.6,0,-4172,-112,52
1773578931.5944078,21.4,30.6,0,-4172,-112,52
1773578931.6154497,21.4,30.6,0,-4172,-112,52
1773578931.6356635,21.4,30.6,0,-4180,-68,60
1773578931.6567175,21.4,30.6,0,-4180,-68,60
1773578931.6777556,21.4,30.6,0,-4176,-92,36
1773578931.6988034,21.4,30.6,0,-4176,-92,36
1773578931.7192101,21.4,30.6,0,-4176,-92,36
1773578931.7399197,21.4,30.6,0,-4164,-132,56
1773578931.7607033,21.4,30.6,0,-4164,-132,56
1773578931.7821963,21.4,30.6,0,-4188,-104,40
1773578931.803155,21.4,30.6,0,-4188,-104,40
1773578931.8236449,21.4,30.6,0,-4188,-104,40
1773578931.8443558,21.4,30.6,0,-4192,-84,68
1773578931.8651836,21.4,30.6,0,-4192,-84,68
1773578931.8865657,21.4,30.6,0,-4192,-84,68
1773578931.9072645,21.4,30.6,0,-4192,-84,68
1773578931.9279385,21.4,30.6,0,-4200,-152,12
1773578931.9495354,21.4,30.6,0,-4200,-152,12
1773578931.9711015,21.4,30.6,0,-4236,-68,80
1773578931.9921343,21.4,30.6,0,-4236,-68,80
1773578932.0130188,21.4,30.6,0,-4236,-68,80
1773578932.0336154,21.4,30.6,0,-4084,-112,100
1773578932.0539563,21.4,30.6,0,-4084,-112,100
1773578932.074666,21.4,30.6,0,-4160,-252,48
1773578932.0953956,21.4,30.6,0,-4160,-252,48
1773578932.1159294,21.4,30.6,0,-4160,-252,48
1773578932.1362967,21.4,30.6,0,-4176,-76,88
1773578932.1576872,21.4,30.6,0,-4176,-76,88
1773578932.182384,21.4,30.6,0,-4144,-140,44
1773578932.2026358,21.4,30.6,0,-4144,-140,44
1773578932.2230105,21.4,30.6,0,-4144,-140,44
1773578932.2437072,21.4,30.6,0,-4176,-108,20
1773578932.2644436,21.4,30.6,0,-4176,-108,20
1773578932.2863715,21.4,30.6,0,-4196,-56,76
1773578932.3067877,21.4,30.6,0,-4196,-56,76
1773578932.3274784,21.4,30.6,0,-4196,-56,76
1773578932.347791,21.4,30.6,0,-4160,-168,28
1773578932.3681638,21.4,30.6,0,-4160,-168,28
1773578932.3883898,21.4,30.6,0,-4172,-156,56
1773578932.4091847,21.4,30.6,0,-4172,-156,56
1773578932.4298146,21.4,30.6,0,-4172,-156,56
1773578932.4501367,21.4,30.6,0,-4172,-104,32
1773578932.4706244,21.4,30.6,0,-4172,-104,32
1773578932.4909647,21.4,30.6,0,-4172,-104,32
1773578932.5116658,21.4,30.6,0,-4136,-132,36
1773578932.532057,21.4,30.6,0,-4136,-132,36
1773578932.5528064,21.4,30.6,0,-4168,-124,64
1773578932.57343,21.4,30.6,0,-4168,-124,64
1773578932.5937567,21.4,30.6,0,-4168,-124,64
1773578932.6139953,21.4,30.6,0,-4184,-104,64
1773578932.6364503,21.4,30.6,0,-4184,-104,64
1773578932.6571991,21.4,30.6,0,-4176,-132,40
1773578932.6778657,21.4,30.6,0,-4176,-132,40
1773578932.6981533,21.4,30.6,0,-4176,-132,40
1773578932.7184262,21.4,30.6,0,-4160,-112,68
1773578932.7389805,21.4,30.6,0,-4160,-112,68
1773578932.7598324,21.4,30.6,0,-4180,-112,60
1773578932.7803574,21.4,30.6,0,-4180,-112,60
1773578932.8017495,21.4,30.6,0,-4180,-112,60
1773578932.8224306,21.4,30.6,0,-4172,-104,36
1773578932.8429358,21.4,30.6,0,-4172,-104,36
1773578932.8636217,21.4,30.6,0,-4192,-120,44
1773578932.884272,21.4,30.6,0,-4192,-120,44
1773578932.9046872,21.4,30.6,0,-4192,-120,44
1773578932.9257598,21.4,30.6,0,-4160,-92,72
1773578932.947023,21.4,30.6,0,-4160,-92,72
1773578932.9674034,21.4,30.6,0,-4160,-92,72
1773578932.9880948,21.4,30.6,0,-4168,-124,72
1773578933.0086508,21.4,30.6,0,-4168,-124,72
1773578933.0307631,21.4,30.6,0,-4180,-120,52
1773578933.051645,21.4,30.6,0,-4180,-120,52
1773578933.0724525,21.4,30.6,0,-4180,-120,52
1773578933.0932395,21.4,30.6,0,-4176,-104,60
1773578933.114443,21.4,30.6,0,-4176,-104,60
1773578933.135095,21.4,30.6,0,-4184,-88,56
1773578933.1561918,21.4,30.6,0,-4184,-88,56
1773578933.181059,21.4,30.6,0,-4184,-88,56
1773578933.2027857,21.4,30.6,0,-4180,-120,68
1773578933.2233346,21.4,30.6,0,-4180,-120,68
1773578933.243837,21.4,30.6,0,-4172,-120,44
1773578933.2714217,21.4,30.6,0,-4172,-120,44
1773578933.292439,21.4,30.6,0,-4176,-88,64
1773578933.3130436,21.4,30.6,0,-4176,-88,64
1773578933.333906,21.4,30.6,0,-4176,-88,64
1773578933.3548937,21.4,30.6,0,-4184,-104,40
1773578933.3755322,21.4,30.6,0,-4184,-104,40
1773578933.3959703,21.4,30.6,0,-4188,-88,64
1773578933.4164531,21.4,30.6,0,-4188,-88,64
1773578933.4371781,21.4,30.6,0,-4188,-88,64
1773578933.4580252,21.4,30.6,0,-4180,-108,52
1773578933.478674,21.4,30.6,0,-4180,-108,52
1773578933.4988787,21.4,30.6,0,-4180,-108,52
1773578933.5204518,21.4,30.6,0,-4184,-124,60
1773578933.5414066,21.4,30.6,0,-4184,-124,60
1773578933.562052,21.4,30.6,0,-4180,-88,60
1773578933.5836518,21.4,30.6,0,-4180,-88,60
1773578933.6050458,21.4,30.6,0,-4180,-88,60
1773578933.6261015,21.4,30.6,0,-4180,-136,28
1773578933.6466715,21.4,30.6,0,-4180,-136,28
1773578933.667357,21.4,30.6,0,-4172,-96,48
1773578933.6880572,21.4,30.6,0,-4172,-96,48
1773578933.708255,21.4,30.6,0,-4172,-96,48
1773578933.728778,21.4,30.6,0,-4184,-128,36
1773578933.7492514,21.4,30.6,0,-4184,-128,36
1773578933.7695084,21.4,30.6,0,-4172,-100,52
1773578933.7899725,21.4,30.6,0,-4172,-100,52
1773578933.8106682,21.4,30.6,0,-4172,-100,52
1773578933.831059,21.4,30.6,0,-4180,-100,72
1773578933.8518934,21.4,30.6,0,-4180,-100,72
1773578933.8725457,21.4,30.6,0,-4180,-136,60
1773578933.8936458,21.4,30.6,0,-4180,-136,60
1773578933.9153502,21.4,30.6,0,-4180,-136,60
1773578933.9366903,21.4,30.6,0,-4180,-136,60
1773578933.9578056,21.4,30.6,0,-4176,-52,52
1773578933.9789364,21.4,30.6,0,-4176,-52,52
1773578933.999559,21.4,30.6,0,-4176,-52,52
1773578934.020086,21.4,30.6,0,-4184,-128,56
1773578934.040924,21.4,30.6,0,-4184,-128,56
1773578934.0616786,21.4,30.6,0,-4172,-108,60
1773578934.0829413,21.4,30.6,0,-4172,-108,60
1773578934.1035388,21.4,30.6,0,-4172,-108,60
1773578934.1241715,21.4,30.6,0,-4160,-112,56
1773578934.14533,21.4,30.6,0,-4160,-112,56
1773578934.1665592,21.4,30.6,0,-4168,-108,52
1773578934.186973,21.4,30.6,0,-4168,-108,52
1773578934.2081685,21.4,30.6,0,-4168,-108,52
1773578934.2290967,21.4,30.6,0,-4180,-112,88
1773578934.2496889,21.4,30.6,0,-4180,-112,88
1773578934.2703378,21.4,30.6,0,-4176,-132,60
1773578934.2909405,21.4,30.6,0,-4176,-132,60
1773578934.3115778,21.4,30.6,0,-4176,-132,60
1773578934.3326395,21.4,30.6,0,-4180,-108,72
1773578934.3538249,21.4,30.6,0,-4180,-108,72
1773578934.3744822,21.4,30.6,0,-4196,-116,40
1773578934.3948014,21.4,30.6,0,-4196,-116,40
1773578934.4157517,21.4,30.6,0,-4196,-116,40
1773578934.4362648,21.4,30.6,0,-4180,-116,52
1773578934.4567666,21.4,30.6,0,-4180,-116,52
1773578934.4773154,21.4,30.6,0,-4180,-116,52
1773578934.4979455,21.4,30.6,0,-4176,-104,60
1773578934.5187354,21.4,30.6,0,-4176,-104,60
1773578934.5396004,21.4,30.6,0,-4196,-104,60
1773578934.5627055,21.4,30.6,0,-4196,-104,60
1773578934.5830376,21.4,30.6,0,-4196,-104,60
1773578934.6033506,21.4,30.6,0,-4192,-124,56
1773578934.6241028,21.4,30.6,0,-4192,-124,56
1773578934.6447148,21.4,30.6,0,-4164,-124,44
1773578934.6657257,21.4,30.6,0,-4164,-124,44
1773578934.686074,21.4,30.6,0,-4164,-124,44
1773578934.7065089,21.4,30.6,0,-4152,-104,56
1773578934.7272937,21.4,30.6,0,-4152,-104,56
1773578934.747999,21.4,30.6,0,-4180,-120,64
1773578934.7693934,21.4,30.6,0,-4180,-120,64
1773578934.7902267,21.4,30.6,0,-4180,-120,64
1773578934.8108265,21.4,30.6,0,-4172,-96,48
1773578934.831474,21.4,30.6,0,-4172,-96,48
1773578934.8523765,21.4,30.6,0,-4180,-92,44
1773578934.873119,21.4,30.6,0,-4180,-92,44
1773578934.8936126,21.4,30.6,0,-4180,-92,44
1773578934.9139109,21.4,30.6,0,-4168,-120,60
1773578934.9354787,21.4,30.6,0,-4168,-120,60
1773578934.9559584,21.4,30.6,0,-4168,-120,60
1773578934.976333,21.4,30.6,0,-4184,-96,68
1773578934.9970036,21.4,30.6,0,-4184,-96,68
1773578935.0174649,21.4,30.6,0,-4164,-104,76
1773578935.0378675,21.4,30.6,0,-4164,-104,76
1773578935.0587385,21.4,30.6,0,-4164,-104,76
1773578935.0807202,21.4,30.6,0,-4164,-120,60
1773578935.1010303,21.4,30.6,0,-4164,-120,60
1773578935.1226387,21.4,30.6,0,-4184,-116,56
1773578935.142935,21.4,30.6,0,-4184,-116,56
1773578935.1633406,21.4,30.6,0,-4184,-116,56
1773578935.1839697,21.4,30.6,0,-4176,-100,48
1773578935.2042365,21.4,30.6,0,-4176,-100,48
1773578935.224753,21.4,30.6,0,-4164,-108,36
1773578935.245394,21.4,30.6,0,-4164,-108,36
1773578935.2656832,21.4,30.6,0,-4164,-108,36
1773578935.2859108,21.4,30.6,0,-4188,-88,76
1773578935.3062449,21.4,30.6,0,-4188,-88,76
1773578935.3266447,21.4,30.6,0,-4188,-88,76
1773578935.347255,21.4,30.6,0,-4168,-116,40
1773578935.3689184,21.4,30.6,0,-4168,-116,40
1773578935.3895667,21.4,30.6,0,-4176,-104,64
1773578935.4108098,21.4,30.6,0,-4176,-104,64
1773578935.431445,21.4,30.6,0,-4176,-104,64
1773578935.4531057,21.4,30.6,0,-4176,-112,52
1773578935.4735422,21.4,30.6,0,-4176,-112,52
1773578935.4941673,21.4,30.6,0,-4212,-112,68
1773578935.5146258,21.4,30.6,0,-4212,-112,68
1773578935.535025,21.4,30.6,0,-4212,-112,68
1773578935.5553932,21.4,30.6,0,-4168,-116,60
1773578935.5761068,21.4,30.6,0,-4168,-116,60
1773578935.5966778,21.4,30.6,0,-4192,-120,64
1773578935.617455,21.4,30.6,0,-4192,-120,64
1773578935.6378763,21.4,30.6,0,-4192,-120,64
1773578935.6586955,21.4,30.6,0,-4180,-88,72
1773578935.6793158,21.4,30.6,0,-4180,-88,72
1773578935.6999812,21.4,30.6,0,-4180,-88,72
1773578935.7237334,21.4,30.6,0,-4172,-104,60
1773578935.7443786,21.4,30.6,0,-4172,-104,60
1773578935.765532,21.4,30.6,0,-4168,-120,56
1773578935.7872114,21.4,30.6,0,-4168,-120,56
1773578935.8085253,21.4,30.6,0,-4152,-96,52
1773578935.8295944,21.4,30.6,0,-4152,-96,52
1773578935.850038,21.4,30.6,0,-4152,-96,52
1773578935.871441,21.4,30.6,0,-4176,-120,56
1773578935.8918266,21.4,30.6,0,-4176,-120,56
1773578935.912483,21.4,30.6,0,-4156,-112,44
1773578935.9328072,21.4,30.6,0,-4156,-112,44
1773578935.9532492,21.4,30.6,0,-4156,-112,44
1773578935.973862,21.4,30.6,0,-4156,-112,44
1773578935.9946506,21.4,30.5,0,-4164,-112,76
1773578936.0150967,21.4,30.5,0,-4164,-112,76
1773578936.0358403,21.4,30.5,0,-4164,-112,76
1773578936.0563865,21.4,30.5,0,-4168,-124,64
1773578936.076836,21.4,30.5,0,-4168,-124,64
1773578936.097334,21.4,30.5,0,-4180,-112,40
1773578936.118343,21.4,30.5,0,-4180,-112,40
1773578936.1395738,21.4,30.5,0,-4180,-112,40
1773578936.1601205,21.4,30.5,0,-4176,-108,64
1773578936.180733,21.4,30.5,0,-4176,-108,64
1773578936.202125,21.4,30.5,0,-4176,-108,64
1773578936.2224274,21.4,30.5,0,-4180,-120,44
1773578936.2429404,21.4,30.5,0,-4180,-120,44
1773578936.2650692,21.4,30.5,0,-4176,-104,56
1773578936.2859254,21.4,30.5,0,-4176,-104,56
1773578936.3064954,21.4,30.5,0,-4176,-104,56
1773578936.3276289,21.4,30.5,0,-4180,-100,44
1773578936.348646,21.4,30.5,0,-4180,-100,44
1773578936.3692467,21.4,30.5,0,-4172,-112,76
1773578936.3901289,21.4,30.5,0,-4172,-112,76
1773578936.4107432,21.4,30.5,0,-4172,-112,76
1773578936.431519,21.4,30.5,0,-4184,-88,44
1773578936.4536023,21.4,30.5,0,-4184,-88,44
1773578936.474439,21.4,30.5,0,-4176,-112,56
1773578936.4953294,21.4,30.5,0,-4176,-112,56
1773578936.516121,21.4,30.5,0,-4176,-112,56
1773578936.5368347,21.4,30.5,0,-4192,-128,40
1773578936.5575662,21.4,30.5,0,-4192,-128,40
1773578936.5783267,21.4,30.5,0,-4188,-124,48
1773578936.5991406,21.4,30.5,0,-4188,-124,48
1773578936.6195047,21.4,30.5,0,-4188,-124,48
1773578936.6400476,21.4,30.5,0,-4172,-112,44
1773578936.6614628,21.4,30.5,0,-4172,-112,44
1773578936.6819334,21.4,30.5,0,-4180,-112,48
1773578936.7029095,21.4,30.5,0,-4180,-112,48
1773578936.7234902,21.4,30.5,0,-4180,-112,48
1773578936.7441812,21.4,30.5,0,-4184,-116,64
1773578936.7651224,21.4,30.5,0,-4184,-116,64
1773578936.7857728,21.4,30.5,0,-4184,-116,64
1773578936.8062627,21.4,30.5,0,-4184,-104,68
1773578936.827209,21.4,30.5,0,-4184,-104,68
1773578936.8491807,21.4,30.5,0,-4188,-128,52
1773578936.871516,21.4,30.5,0,-4188,-128,52
1773578936.8919666,21.4,30.5,0,-4140,-92,56
1773578936.913055,21.4,30.5,0,-4140,-92,56
1773578936.9357288,21.4,30.5,0,-4140,-92,56
1773578936.9565494,21.4,30.5,0,-4172,-92,44
1773578936.9772217,21.4,30.5,0,-4172,-92,44
1773578936.997879,21.4,30.5,0,-4172,-92,44
1773578937.019812,21.4,30.5,0,-4184,-112,44
1773578937.0402021,21.4,30.5,0,-4184,-112,44
1773578937.0609436,21.4,30.5,0,-4180,-120,64
1773578937.0820572,21.4,30.5,0,-4180,-120,64
1773578937.1044466,21.4,30.5,0,-4180,-120,64
1773578937.1248405,21.4,30.5,0,-4156,-116,40
1773578937.149204,21.4,30.5,0,-4156,-116,40
1773578937.169609,21.4,30.5,0,-4176,-112,80
1773578937.1905084,21.4,30.5,0,-4176,-112,80
1773578937.2109597,21.4,30.5,0,-4184,-92,44
1773578937.231732,21.4,30.5,0,-4184,-92,44
1773578937.2524397,21.4,30.5,0,-4184,-92,44
1773578937.273194,21.4,30.5,0,-4184,-112,40
1773578937.2934732,21.4,30.5,0,-4184,-112,40
1773578937.3142579,21.4,30.5,0,-4184,-112,40
1773578937.3368595,21.4,30.5,0,-4184,-148,64
1773578937.3575616,21.4,30.5,0,-4184,-148,64
1773578937.37834,21.4,30.5,0,-4168,-96,32
1773578937.3989697,21.4,30.5,0,-4168,-96,32
1773578937.4203205,21.4,30.5,0,-4168,-96,32
1773578937.4411821,21.4,30.5,0,-4160,-124,60
1773578937.4621887,21.4,30.5,0,-4160,-124,60
1773578937.4825764,21.4,30.5,0,-4176,-128,64
1773578937.5031319,21.4,30.5,0,-4176,-128,64
1773578937.5237796,21.4,30.5,0,-4176,-128,64
1773578937.5451267,21.4,30.5,0,-4160,-116,68
1773578937.566414,21.4,30.5,0,-4160,-116,68
1773578937.5871606,21.4,30.5,0,-4184,-116,60
1773578937.607495,21.4,30.5,0,-4184,-116,60
1773578937.6282482,21.4,30.5,0,-4184,-116,60
1773578937.6495306,21.4,30.5,0,-4184,-112,56
1773578937.6697907,21.4,30.5,0,-4184,-112,56
1773578937.6903324,21.4,30.5,0,-4188,-112,84
1773578937.7111337,21.4,30.5,0,-4188,-112,84
1773578937.7322156,21.4,30.5,0,-4188,-112,84
1773578937.7541015,21.4,30.5,0,-4184,-92,48
1773578937.77495,21.4,30.5,0,-4184,-92,48
1773578937.795689,21.4,30.5,0,-4160,-104,48
1773578937.815905,21.4,30.5,0,-4160,-104,48
1773578937.8367116,21.4,30.5,0,-4160,-104,48
1773578937.8575003,21.4,30.5,0,-4172,-108,60
1773578937.8785007,21.4,30.5,0,-4172,-108,60
1773578937.899043,21.4,30.5,0,-4172,-108,60
1773578937.9196553,21.4,30.5,0,-4196,-96,36
1773578937.9407244,21.4,30.5,0,-4196,-96,36
1773578937.9614434,21.4,30.5,0,-4164,-128,52
1773578937.9824374,21.4,30.5,0,-4164,-128,52
1773578938.0031528,21.4,30.5,0,-4164,-128,52
1773578938.0238357,21.4,30.5,0,-4164,-128,52
1773578938.0448074,21.4,30.5,0,-4172,-80,48
1773578938.0655315,21.4,30.5,0,-4172,-80,48
1773578938.0858378,21.4,30.5,0,-4184,-140,60
1773578938.1065102,21.4,30.5,0,-4184,-140,60
1773578938.127416,21.4,30.5,0,-4184,-140,60
1773578938.1481285,21.4,30.5,0,-4176,-112,56
1773578938.1694686,21.4,30.5,0,-4176,-112,56
1773578938.1903162,21.4,30.5,0,-4176,-112,56
1773578938.2113595,21.4,30.5,0,-4168,-116,52
1773578938.2326238,21.4,30.5,0,-4168,-116,52
1773578938.2535586,21.4,30.5,0,-4160,-132,52
1773578938.2743826,21.4,30.5,0,-4160,-132,52
1773578938.2949204,21.4,30.5,0,-4160,-132,52
1773578938.3155172,21.4,30.5,0,-4144,-104,36
1773578938.3362775,21.4,30.5,0,-4144,-104,36
1773578938.3570166,21.4,30.5,0,-4180,-100,64
1773578938.3774097,21.4,30.5,0,-4180,-100,64
1773578938.3980722,21.4,30.5,0,-4180,-100,64
1773578938.4195602,21.4,30.5,0,-4200,-100,68
1773578938.4403586,21.4,30.5,0,-4200,-100,68
1773578938.460735,21.4,30.5,0,-4176,-128,52
1773578938.481042,21.4,30.5,0,-4176,-128,52
1773578938.5017579,21.4,30.5,0,-4176,-128,52
1773578938.5224617,21.4,30.5,0,-4160,-104,56
1773578938.5430217,21.4,30.5,0,-4160,-104,56
1773578938.5642846,21.4,30.5,0,-4184,-112,52
1773578938.5866623,21.4,30.5,0,-4184,-112,52
1773578938.6072311,21.4,30.5,0,-4184,-112,52
1773578938.6276886,21.4,30.5,0,-4176,-120,64
1773578938.6484523,21.4,30.5,0,-4176,-120,64
1773578938.6716106,21.4,30.5,0,-4184,-112,40
1773578938.692093,21.4,30.5,0,-4184,-112,40
1773578938.7131243,21.4,30.5,0,-4184,-112,40
1773578938.734348,21.4,30.5,0,-4192,-112,68
1773578938.7548382,21.4,30.5,0,-4192,-112,68
1773578938.7754648,21.4,30.5,0,-4188,-108,24
1773578938.7963092,21.4,30.5,0,-4188,-108,24
1773578938.8172996,21.4,30.5,0,-4188,-108,24
1773578938.8379436,21.4,30.5,0,-4184,-84,52
1773578938.858485,21.4,30.5,0,-4184,-84,52
1773578938.8789976,21.4,30.5,0,-4184,-84,52
1773578938.8995106,21.4,30.5,0,-4180,-88,52
1773578938.9200962,21.4,30.5,0,-4180,-88,52
1773578938.9410417,21.4,30.5,0,-4176,-136,52
1773578938.9616725,21.4,30.5,0,-4176,-136,52
1773578938.9821582,21.4,30.5,0,-4176,-136,52
1773578939.0027382,21.4,30.5,0,-4180,-100,48
1773578939.0235512,21.4,30.5,0,-4180,-100,48
1773578939.0445638,21.4,30.5,0,-4172,-120,60
1773578939.0655472,21.4,30.5,0,-4172,-120,60
1773578939.086714,21.4,30.5,0,-4172,-120,60
1773578939.107413,21.4,30.5,0,-4176,-104,68
1773578939.1280787,21.4,30.5,0,-4176,-104,68
1773578939.1489396,21.4,30.5,0,-4176,-116,60
1773578939.1693666,21.4,30.5,0,-4176,-116,60
1773578939.189882,21.4,30.5,0,-4176,-116,60
1773578939.210904,21.4,30.5,0,-4172,-112,60
1773578939.231935,21.4,30.5,0,-4172,-112,60
1773578939.2525907,21.4,30.5,0,-4184,-88,56
1773578939.2731118,21.4,30.5,0,-4184,-88,56
1773578939.2938728,21.4,30.5,0,-4184,-88,56
1773578939.3146536,21.4,30.5,0,-4184,-104,36
1773578939.336159,21.4,30.5,0,-4184,-104,36
1773578939.3569136,21.4,30.5,0,-4184,-104,36
1773578939.3776023,21.4,30.5,0,-4184,-104,56
1773578939.3985605,21.4,30.5,0,-4184,-104,56
1773578939.4190602,21.4,30.5,0,-4184,-104,48
1773578939.43955,21.4,30.5,0,-4184,-104,48
1773578939.4600046,21.4,30.5,0,-4184,-104,48
1773578939.4806366,21.4,30.5,0,-4200,-128,56
1773578939.5010195,21.4,30.5,0,-4200,-128,56
1773578939.5217285,21.4,30.5,0,-4172,-136,40
1773578939.5425365,21.4,30.5,0,-4172,-136,40
1773578939.5628793,21.4,30.5,0,-4172,-136,40
1773578939.58402,21.4,30.5,0,-4188,-88,48
1773578939.6047103,21.4,30.5,0,-4188,-88,48
1773578939.6251252,21.4,30.5,0,-4172,-88,52
1773578939.6454098,21.4,30.5,0,-4172,-88,52
1773578939.6658638,21.4,30.5,0,-4172,-88,52
1773578939.68666,21.4,30.5,0,-4172,-108,56
1773578939.7069452,21.4,30.5,0,-4172,-108,56
1773578939.727574,21.4,30.5,0,-4172,-108,56
1773578939.747927,21.4,30.5,0,-4168,-108,64
1773578939.768697,21.4,30.5,0,-4168,-108,64
1773578939.7893264,21.4,30.5,0,-4184,-112,64
1773578939.8114069,21.4,30.5,0,-4184,-112,64
1773578939.8319492,21.4,30.5,0,-4184,-112,64
1773578939.8529258,21.4,30.5,0,-4180,-112,40
1773578939.8735125,21.4,30.5,0,-4180,-112,40
1773578939.8946373,21.4,30.5,0,-4152,-124,28
1773578939.9154549,21.4,30.5,0,-4152,-124,28
1773578939.9365222,21.4,30.5,0,-4152,-124,28
1773578939.957281,21.4,30.5,0,-4160,-84,60
1773578939.9782205,21.4,30.5,0,-4160,-84,60
1773578939.9986925,21.4,30.5,0,-4176,-104,60
1773578940.020649,21.4,30.5,0,-4176,-104,60
1773578940.0412016,21.4,30.5,0,-4176,-104,60
1773578940.061644,21.4,30.5,0,-4176,-104,60
1773578940.0820496,21.4,30.5,0,-4172,-128,48
1773578940.1033463,21.4,30.5,0,-4172,-128,48
1773578940.1239393,21.4,30.5,0,-4172,-128,48
1773578940.1446598,21.4,30.5,0,-4164,-108,56
1773578940.165213,21.4,30.5,0,-4164,-108,56
1773578940.1858962,21.4,30.5,0,-4164,-104,48
1773578940.2064774,21.4,30.5,0,-4164,-104,48
1773578940.2275157,21.4,30.5,0,-4164,-104,48
1773578940.2482312,21.4,30.5,0,-4184,-120,44
1773578940.2687936,21.4,30.5,0,-4184,-120,44
1773578940.2894444,21.4,30.5,0,-4204,-112,68
1773578940.3102574,21.4,30.5,0,-4204,-112,68
1773578940.3308938,21.4,30.5,0,-4204,-112,68
1773578940.3531766,21.4,30.5,0,-4172,-116,56
1773578940.3734286,21.4,30.5,0,-4172,-116,56
1773578940.3943017,21.4,30.5,0,-4152,-116,56
1773578940.4150624,21.4,30.5,0,-4152,-116,56
1773578940.4362814,21.4,30.5,0,-4152,-116,56
1773578940.456825,21.4,30.5,0,-4176,-116,84
1773578940.4778605,21.4,30.5,0,-4176,-116,84
1773578940.4982436,21.4,30.5,0,-4176,-104,64
1773578940.5186658,21.4,30.5,0,-4176,-104,64
1773578940.5395756,21.4,30.5,0,-4176,-104,64
1773578940.560411,21.4,30.5,0,-4172,-112,56
1773578940.5818715,21.4,30.5,0,-4172,-112,56
1773578940.6023233,21.4,30.5,0,-4172,-112,56
1773578940.6229525,21.4,30.5,0,-4180,-120,52
1773578940.6437697,21.4,30.5,0,-4180,-120,52
1773578940.664384,21.4,30.5,0,-4160,-116,48
1773578940.6871116,21.4,30.5,0,-4160,-116,48
1773578940.7078612,21.4,30.5,0,-4160,-116,48
1773578940.7281854,21.4,30.5,0,-4204,-108,64
1773578940.7488236,21.4,30.5,0,-4204,-108,64
1773578940.7692506,21.4,30.5,0,-4172,-80,32
1773578940.7899826,21.4,30.5,0,-4172,-80,32
1773578940.8103714,21.4,30.5,0,-4172,-80,32
1773578940.8308544,21.4,30.5,0,-4160,-136,52
1773578940.8514385,21.4,30.5,0,-4160,-136,52
1773578940.8717418,21.4,30.5,0,-4180,-108,48
1773578940.892363,21.4,30.5,0,-4180,-108,48
1773578940.912894,21.4,30.5,0,-4180,-108,48
1773578940.9333622,21.4,30.5,0,-4176,-84,52
1773578940.9538019,21.4,30.5,0,-4176,-84,52
1773578940.9745376,21.4,30.5,0,-4176,-84,52
1773578940.9953723,21.4,30.5,0,-4184,-124,40
1773578941.0162616,21.4,30.5,0,-4184,-124,40
1773578941.0372388,21.4,30.5,0,-4168,-116,32
1773578941.0579982,21.4,30.5,0,-4168,-116,32
1773578941.0787454,21.4,30.5,0,-4168,-116,32
1773578941.1007123,21.4,30.5,0,-4176,-120,48
1773578941.121517,21.4,30.5,0,-4176,-120,48
1773578941.141958,21.4,30.5,0,-4180,-92,56
1773578941.1631613,21.4,30.5,0,-4180,-92,56
1773578941.1835294,21.4,30.5,0,-4180,-92,56
1773578941.2041807,21.4,30.5,0,-4176,-124,36
1773578941.2247071,21.4,30.5,0,-4176,-124,36
1773578941.2454183,21.4,30.5,0,-4172,-120,52
1773578941.2664742,21.4,30.5,0,-4172,-120,52
1773578941.287475,21.4,30.5,0,-4172,-120,52
1773578941.3081403,21.4,30.5,0,-4176,-104,52
1773578941.3294096,21.4,30.5,0,-4176,-104,52
1773578941.3503623,21.4,30.5,0,-4172,-100,44
1773578941.3710341,21.4,30.5,0,-4172,-100,44
1773578941.391908,21.4,30.5,0,-4172,-100,44
1773578941.412965,21.4,30.5,0,-4164,-104,60
1773578941.4355829,21.4,30.5,0,-4164,-104,60
1773578941.4560428,21.4,30.5,0,-4164,-112,72
1773578941.4767756,21.4,30.5,0,-4164,-112,72
1773578941.4976525,21.4,30.5,0,-4164,-112,72
1773578941.5191185,21.4,30.5,0,-4168,-132,40
1773578941.5394502,21.4,30.5,0,-4168,-132,40
1773578941.5602894,21.4,30.5,0,-4176,-68,60
1773578941.580928,21.4,30.5,0,-4176,-68,60
1773578941.60164,21.4,30.5,0,-4176,-68,60
1773578941.622242,21.4,30.5,0,-4188,-96,64
1773578941.6428905,21.4,30.5,0,-4188,-96,64
1773578941.663725,21.4,30.5,0,-4188,-96,64
1773578941.685754,21.4,30.5,0,-4176,-108,44
1773578941.7065418,21.4,30.5,0,-4176,-108,44
1773578941.727441,21.4,30.5,0,-4168,-108,60
1773578941.7483187,21.4,30.5,0,-4168,-108,60
1773578941.7694223,21.4,30.5,0,-4168,-108,60
1773578941.7898707,21.4,30.5,0,-4172,-84,56
1773578941.811175,21.4,30.5,0,-4172,-84,56
1773578941.8322413,21.4,30.5,0,-4184,-120,44
1773578941.852527,21.4,30.5,0,-4184,-120,44
1773578941.8729973,21.4,30.5,0,-4184,-120,44
1773578941.8937764,21.4,30.5,0,-4176,-112,48
1773578941.9143186,21.4,30.5,0,-4176,-112,48
1773578941.9351907,21.4,30.5,0,-4176,-88,40
1773578941.9558578,21.4,30.5,0,-4176,-88,40
1773578941.9765644,21.4,30.5,0,-4176,-88,40
1773578941.9971902,21.4,30.5,0,-4176,-108,56
1773578942.018661,21.4,30.5,0,-4176,-108,56
1773578942.0394623,21.4,30.5,0,-4172,-108,64
1773578942.0601788,21.4,30.5,0,-4172,-108,64
1773578942.0807197,21.4,30.5,0,-4172,-108,64
1773578942.101793,21.4,30.5,0,-4172,-108,64
1773578942.1224782,21.4,30.5,0,-4176,-120,52
1773578942.1434326,21.4,30.5,0,-4176,-120,52
1773578942.1639478,21.4,30.5,0,-4176,-120,52
1773578942.1844065,21.4,30.5,0,-4192,-112,48
1773578942.2065973,21.4,30.5,0,-4192,-112,48
1773578942.2274678,21.4,30.5,0,-4160,-104,52
1773578942.2492657,21.4,30.5,0,-4160,-104,52
1773578942.2698112,21.4,30.5,0,-4160,-104,52
1773578942.2899978,21.4,30.5,0,-4176,-80,56
1773578942.310556,21.4,30.5,0,-4176,-80,56
1773578942.3313205,21.4,30.5,0,-4180,-104,48
1773578942.3519506,21.4,30.5,0,-4180,-104,48
1773578942.3726068,21.4,30.5,0,-4180,-104,48
1773578942.39329,21.4,30.5,0,-4180,-124,80
1773578942.4137955,21.4,30.5,0,-4180,-124,80
1773578942.4346023,21.4,30.5,0,-4188,-104,52
1773578942.4550936,21.4,30.5,0,-4188,-104,52
1773578942.475794,21.4,30.5,0,-4188,-104,52
1773578942.4967282,21.4,30.5,0,-4184,-112,64
1773578942.5178695,21.4,30.5,0,-4184,-112,64
1773578942.5381432,21.4,30.5,0,-4184,-112,64
1773578942.5587313,21.4,30.5,0,-4180,-108,40
1773578942.5801623,21.4,30.5,0,-4180,-108,40
1773578942.6015985,21.4,30.5,0,-4172,-124,72
1773578942.6221464,21.4,30.5,0,-4172,-124,72
1773578942.6425347,21.4,30.5,0,-4172,-124,72
1773578942.6632261,21.4,30.5,0,-4188,-140,56
1773578942.6840453,21.4,30.5,0,-4188,-140,56
1773578942.704486,21.4,30.5,0,-4188,-116,76
1773578942.725287,21.4,30.5,0,-4188,-116,76
1773578942.749394,21.4,30.5,0,-4188,-116,76
1773578942.7702482,21.4,30.5,0,-4164,-104,60
1773578942.7904603,21.4,30.5,0,-4164,-104,60
1773578942.8110843,21.4,30.5,0,-4172,-120,52
1773578942.831319,21.4,30.5,0,-4172,-120,52
1773578942.8525784,21.4,30.5,0,-4172,-120,52
1773578942.8731515,21.4,30.5,0,-4184,-124,72
1773578942.894104,21.4,30.5,0,-4184,-124,72
1773578942.914356,21.4,30.5,0,-4164,-120,40
1773578942.9352934,21.4,30.5,0,-4164,-120,40
1773578942.9560077,21.4,30.5,0,-4164,-120,40
1773578942.9764283,21.4,30.5,0,-4180,-104,72
1773578942.9967482,21.4,30.5,0,-4180,-104,72
1773578943.01705,21.4,30.5,0,-4172,-108,48
1773578943.037543,21.4,30.5,0,-4172,-108,48
1773578943.0581589,21.4,30.5,0,-4172,-108,48
1773578943.0788817,21.4,30.5,0,-4168,-104,56
1773578943.0992703,21.4,30.5,0,-4168,-104,56
1773578943.1200197,21.4,30.5,0,-4168,-104,56
1773578943.1403868,21.4,30.5,0,-4164,-108,48
1773578943.1609697,21.4,30.5,0,-4164,-108,48
1773578943.181741,21.4,30.5,0,-4180,-116,56
1773578943.203603,21.4,30.5,0,-4180,-116,56
1773578943.2240052,21.4,30.5,0,-4180,-116,56
1773578943.2449927,21.4,30.5,0,-4176,-108,68
1773578943.2653491,21.4,30.5,0,-4176,-108,68
1773578943.2862954,21.4,30.5,0,-4176,-108,64
1773578943.3069088,21.4,30.5,0,-4176,-108,64
1773578943.3276236,21.4,30.5,0,-4176,-108,64
1773578943.348195,21.4,30.5,0,-4112,-276,136
1773578943.3690865,21.4,30.5,0,-4112,-276,136
1773578943.3895495,21.4,30.5,0,-4160,-104,40
1773578943.4102185,21.4,30.5,0,-4160,-104,40
1773578943.430639,21.4,30.5,0,-4160,-104,40
1773578943.4509885,21.4,30.5,0,-4188,-48,56
1773578943.4713626,21.4,30.5,0,-4188,-48,56
1773578943.4920523,21.4,30.5,0,-4188,-48,56
1773578943.5123012,21.4,30.5,0,-4180,-172,52
1773578943.5331004,21.4,30.5,0,-4180,-172,52
1773578943.5537055,21.4,30.5,0,-4160,-120,56
1773578943.5740874,21.4,30.5,0,-4160,-120,56
1773578943.5945325,21.4,30.5,0,-4160,-120,56
1773578943.615392,21.4,30.5,0,-4176,-80,36
1773578943.6355727,21.4,30.5,0,-4176,-80,36
1773578943.6558018,21.4,30.5,0,-4168,-128,64
1773578943.6766322,21.4,30.5,0,-4168,-128,64
1773578943.6973011,21.4,30.5,0,-4168,-128,64
1773578943.718788,21.4,30.5,0,-4172,-132,36
1773578943.7390482,21.4,30.5,0,-4172,-132,36
1773578943.759625,21.4,30.5,0,-4192,-84,28
1773578943.780059,21.4,30.5,0,-4192,-84,28
1773578943.8004198,21.4,30.5,0,-4192,-84,28
1773578943.821163,21.4,30.5,0,-4164,-84,100
1773578943.8415518,21.4,30.5,0,-4164,-84,100
1773578943.8620846,21.4,30.5,0,-4164,-84,100
1773578943.8826604,21.4,30.5,0,-4172,-128,20
1773578943.903219,21.4,30.5,0,-4172,-128,20
1773578943.9237177,21.4,30.5,0,-4204,-200,32
1773578943.9443812,21.4,30.5,0,-4204,-200,32
1773578943.9648068,21.4,30.5,0,-4204,-200,32
1773578943.986038,21.4,30.5,0,-4196,-376,-32
1773578944.0066314,21.4,30.5,0,-4196,-376,-32
1773578944.027057,21.4,30.5,0,-4132,-2976,-160
1773578944.0477526,21.4,30.5,0,-4132,-2976,-160
1773578944.0690906,21.4,30.5,0,-4132,-2976,-160
1773578944.0896144,21.4,30.5,0,-4196,-2656,528
1773578944.1103687,21.4,30.5,0,-4196,-2656,528
1773578944.1309066,21.4,30.5,0,-4196,-2656,528
1773578944.1514971,21.4,30.5,0,-4196,-2656,528
1773578944.1718943,21.4,30.5,0,-4300,-552,572
1773578944.1924582,21.4,30.5,0,-4300,-552,572
1773578944.2128108,21.4,30.5,0,-4500,-184,656
1773578944.2331586,21.4,30.5,0,-4500,-184,656
1773578944.2534258,21.4,30.5,0,-4500,-184,656
1773578944.2740378,21.4,30.5,0,-4260,232,240
1773578944.2947414,21.4,30.5,0,-4260,232,240
1773578944.3152103,21.4,30.5,0,-4204,-248,300
1773578944.3353887,21.4,30.5,0,-4204,-248,300
1773578944.3557062,21.4,30.5,0,-4204,-248,300
1773578944.3763723,21.4,30.5,0,-4208,-200,368
1773578944.39697,21.4,30.5,0,-4208,-200,368
1773578944.4175851,21.4,30.5,0,-4208,-200,368
1773578944.4385107,21.4,30.5,0,-4140,-204,248
1773578944.4590807,21.4,30.5,0,-4140,-204,248
1773578944.479739,21.4,30.5,0,-4212,-60,336
1773578944.5001416,21.4,30.5,0,-4212,-60,336
1773578944.5207403,21.4,30.5,0,-4212,-60,336
1773578944.5414941,21.4,30.5,0,-4200,-136,360
1773578944.5618758,21.4,30.5,0,-4200,-136,360
1773578944.5821767,21.4,30.5,0,-4152,-92,288
1773578944.6029499,21.4,30.5,0,-4152,-92,288
1773578944.6237037,21.4,30.5,0,-4152,-92,288
1773578944.643884,21.4,30.5,0,-4192,-88,328
1773578944.6646345,21.4,30.5,0,-4192,-88,328
1773578944.6850448,21.4,30.5,0,-4192,-88,328
1773578944.7056444,21.4,30.5,0,-4112,-8,320
1773578944.7264273,21.4,30.5,0,-4112,-8,320
1773578944.7469664,21.4,30.5,0,-4228,24,296
1773578944.7675173,21.4,30.5,0,-4228,24,296
1773578944.7879028,21.4,30.5,0,-4228,24,296
1773578944.8082786,21.4,30.5,0,-4140,16,296
1773578944.8289173,21.4,30.5,0,-4140,16,296
1773578944.8499377,21.4,30.5,0,-4208,8,264
1773578944.8706377,21.4,30.5,0,-4208,8,264
1773578944.8913083,21.4,30.5,0,-4208,8,264
1773578944.911719,21.4,30.5,0,-4156,96,264
1773578944.9320292,21.4,30.5,0,-4156,96,264
1773578944.9531815,21.4,30.5,0,-4164,8,244
1773578944.9734774,21.4,30.5,0,-4164,8,244
1773578944.99402,21.4,30.5,0,-4164,8,244
1773578945.0142376,21.4,30.5,0,-4164,40,212
1773578945.0352824,21.4,30.5,0,-4164,40,212
1773578945.0559611,21.4,30.5,0,-4164,40,212
1773578945.0766752,21.4,30.5,0,-4180,32,196
1773578945.0974016,21.4,30.5,0,-4180,32,196
1773578945.1183767,21.4,30.5,0,-4176,132,232
1773578945.1391535,21.4,30.5,0,-4176,132,232
1773578945.1598897,21.4,30.5,0,-4176,132,232
1773578945.1805575,21.4,30.5,0,-4172,152,192
1773578945.2024128,21.4,30.5,0,-4172,152,192
1773578945.2230332,21.4,30.5,0,-4208,156,192
1773578945.2436116,21.4,30.5,0,-4208,156,192
1773578945.264003,21.4,30.5,0,-4208,156,192
1773578945.2842808,21.4,30.5,0,-4192,160,176
1773578945.3048513,21.4,30.5,0,-4192,160,176
1773578945.3253984,21.4,30.5,0,-4196,232,172
1773578945.3457792,21.4,30.5,0,-4196,232,172
1773578945.3664842,21.4,30.5,0,-4196,232,172
1773578945.387588,21.4,30.5,0,-4192,272,208
1773578945.4079282,21.4,30.5,0,-4192,272,208
1773578945.4286544,21.4,30.5,0,-4192,272,208
1773578945.4492505,21.4,30.5,0,-4208,220,180
1773578945.4702013,21.4,30.5,0,-4208,220,180
1773578945.4909432,21.4,30.5,0,-4192,132,136
1773578945.5114937,21.4,30.5,0,-4192,132,136
1773578945.5318954,21.4,30.5,0,-4192,132,136
1773578945.552438,21.4,30.5,0,-4188,56,108
1773578945.5728254,21.4,30.5,0,-4188,56,108
1773578945.5934198,21.4,30.5,0,-4180,0,120
1773578945.6137314,21.4,30.5,0,-4180,0,120
1773578945.634089,21.4,30.5,0,-4180,0,120
1773578945.6547544,21.4,30.5,0,-4196,-88,92
1773578945.6751645,21.4,30.5,0,-4196,-88,92
1773578945.6954448,21.4,30.5,0,-4192,-116,72
1773578945.7177148,21.4,30.5,0,-4192,-116,72
1773578945.7382374,21.4,30.5,0,-4192,-116,72
1773578945.7588677,21.4,30.5,0,-4176,-84,60
1773578945.7796981,21.4,30.5,0,-4176,-84,60
1773578945.799991,21.4,30.5,0,-4176,-84,60
1773578945.8204355,21.4,30.5,0,-4188,28,104
1773578945.8410401,21.4,30.5,0,-4188,28,104
1773578945.8617764,21.4,30.5,0,-4188,56,136
1773578945.8823552,21.4,30.5,0,-4188,56,136
1773578945.9028223,21.4,30.5,0,-4188,56,136
1773578945.9236374,21.4,30.5,0,-4196,56,136
1773578945.9442642,21.4,30.5,0,-4196,56,136
1773578945.9647627,21.4,30.5,0,-4180,36,136
1773578945.9861019,21.4,30.5,0,-4180,36,136
1773578946.0065374,21.4,30.5,0,-4180,36,136
1773578946.027062,21.4,30.5,0,-4184,-4,140
1773578946.047772,21.4,30.5,0,-4184,-4,140
1773578946.068049,21.4,30.5,0,-4180,0,136
1773578946.0885382,21.4,30.5,0,-4180,0,136
1773578946.1094227,21.4,30.5,0,-4180,0,136
1773578946.129765,21.4,30.5,0,-4172,-44,132
1773578946.150357,21.4,30.5,0,-4172,-44,132
1773578946.1710162,21.4,30.5,0,-4172,-44,132
1773578946.1913142,21.4,30.5,0,-4172,-44,132
1773578946.2120163,21.4,30.4,0,-4176,-216,72
1773578946.2324533,21.4,30.4,0,-4176,-216,72
1773578946.253294,21.4,30.4,0,-4180,-216,68
1773578946.273806,21.4,30.4,0,-4180,-216,68
1773578946.294462,21.4,30.4,0,-4180,-216,68
1773578946.3149078,21.4,30.4,0,-4172,-168,72
1773578946.3355956,21.4,30.4,0,-4172,-168,72
1773578946.3563027,21.4,30.4,0,-4172,-168,72
1773578946.3769271,21.4,30.4,0,-4196,76,140
1773578946.3976653,21.4,30.4,0,-4196,76,140
1773578946.418184,21.4,30.4,0,-4168,124,192
1773578946.4386127,21.4,30.4,0,-4168,124,192
1773578946.4595804,21.4,30.4,0,-4168,124,192
1773578946.4800086,21.4,30.4,0,-4172,76,184
1773578946.5006907,21.4,30.4,0,-4172,76,184
1773578946.5222278,21.4,30.4,0,-4176,68,228
1773578946.5425997,21.4,30.4,0,-4176,68,228
1773578946.562973,21.4,30.4,0,-4176,68,228
1773578946.5835407,21.4,30.4,0,-4164,76,220
1773578946.6040719,21.4,30.4,0,-4164,76,220
1773578946.6245735,21.4,30.4,0,-4204,84,248
1773578946.6450315,21.4,30.4,0,-4204,84,248
1773578946.6657052,21.4,30.4,0,-4204,84,248
1773578946.6861172,21.4,30.4,0,-4172,20,248
1773578946.7068536,21.4,30.4,0,-4172,20,248
1773578946.7271476,21.4,30.4,0,-4172,20,248
1773578946.7477777,21.4,30.4,0,-4196,-16,248
1773578946.768216,21.4,30.4,0,-4196,-16,248
1773578946.7886894,21.4,30.4,0,-4160,-104,260
1773578946.8093004,21.4,30.4,0,-4160,-104,260
1773578946.8296533,21.4,30.4,0,-4160,-104,260
1773578946.8501358,21.4,30.4,0,-4172,-132,256
1773578946.8706956,21.4,30.4,0,-4172,-132,256
1773578946.89105,21.4,30.4,0,-4176,-124,232
1773578946.9118214,21.4,30.4,0,-4176,-124,232
1773578946.932405,21.4,30.4,0,-4176,-124,232
1773578946.9529488,21.4,30.4,0,-4184,-180,236
1773578946.9732628,21.4,30.4,0,-4184,-180,236
1773578946.9938273,21.4,30.4,0,-4172,-176,224
1773578947.0144453,21.4,30.4,0,-4172,-176,224
1773578947.0353286,21.4,30.4,0,-4172,-176,224
1773578947.0560756,21.4,30.4,0,-4168,-180,244
1773578947.0764446,21.4,30.4,0,-4168,-180,244
1773578947.0970314,21.4,30.4,0,-4168,-180,244
1773578947.1174593,21.4,30.4,0,-4168,-164,192
1773578947.1379483,21.4,30.4,0,-4168,-164,192
1773578947.158773,21.4,30.4,0,-4172,-156,204
1773578947.179082,21.4,30.4,0,-4172,-156,204
1773578947.199355,21.4,30.4,0,-4172,-156,204
1773578947.2199464,21.4,30.4,0,-4176,-200,212
1773578947.2404854,21.4,30.4,0,-4176,-200,212
1773578947.2609212,21.4,30.4,0,-4180,-176,200
1773578947.2816787,21.4,30.4,0,-4180,-176,200
1773578947.30235,21.4,30.4,0,-4180,-176,200
1773578947.3228228,21.4,30.4,0,-4180,-192,180
1773578947.3434489,21.4,30.4,0,-4180,-192,180
1773578947.3637893,21.4,30.4,0,-4180,-192,180
1773578947.3841226,21.4,30.4,0,-4168,-192,184
1773578947.404499,21.4,30.4,0,-4168,-192,184
1773578947.4248476,21.4,30.4,0,-4164,-196,188
1773578947.4455662,21.4,30.4,0,-4164,-196,188
1773578947.4662921,21.4,30.4,0,-4164,-196,188
1773578947.486705,21.4,30.4,0,-4172,-240,164
1773578947.5074472,21.4,30.4,0,-4172,-240,164
1773578947.5279853,21.4,30.4,0,-4176,-548,68
1773578947.5485291,21.4,30.4,0,-4176,-548,68
1773578947.5692189,21.4,30.4,0,-4176,-548,68
1773578947.590061,21.4,30.4,0,-3692,-1732,808
1773578947.6106818,21.4,30.4,0,-3692,-1732,808
1773578947.6312938,21.4,30.4,0,-4036,-216,100
1773578947.6526635,21.4,30.4,0,-4036,-216,100
1773578947.672837,21.4,30.4,0,-4036,-216,100
1773578947.6932256,21.4,30.4,0,-4220,0,-88
1773578947.7139826,21.4,30.4,0,-4220,0,-88
1773578947.734388,21.4,30.4,0,-4220,0,-88
1773578947.754595,21.4,30.4,0,-4084,-180,56
1773578947.7753036,21.4,30.4,0,-4084,-180,56
1773578947.7958844,21.4,30.4,0,-4180,-52,32
1773578947.816509,21.4,30.4,0,-4180,-52,32
1773578947.8375328,21.4,30.4,0,-4180,-52,32
1773578947.8581738,21.4,30.4,0,-4200,-92,-4
1773578947.8787057,21.4,30.4,0,-4200,-92,-4
1773578947.899496,21.4,30.4,0,-4204,-72,40
1773578947.920161,21.4,30.4,0,-4204,-72,40
1773578947.940952,21.4,30.4,0,-4204,-72,40
1773578947.9613779,21.4,30.4,0,-4176,-80,64
1773578947.9818842,21.4,30.4,0,-4176,-80,64
1773578948.0023406,21.4,30.4,0,-4176,-80,64
1773578948.0229552,21.4,30.4,0,-4188,-88,24
1773578948.0435,21.4,30.4,0,-4188,-88,24
1773578948.0639462,21.4,30.4,0,-4164,-108,56
1773578948.0842378,21.4,30.4,0,-4164,-108,56
1773578948.1049995,21.4,30.4,0,-4164,-108,56
1773578948.1254048,21.4,30.4,0,-4172,-104,32
1773578948.1459608,21.4,30.4,0,-4172,-104,32
1773578948.166625,21.4,30.4,0,-4180,-100,52
1773578948.1876547,21.4,30.4,0,-4180,-100,52
1773578948.2082715,21.4,30.4,0,-4180,-100,52
1773578948.228638,21.4,30.4,0,-4180,-100,52
1773578948.2488794,21.4,30.4,0,-4180,-112,32
1773578948.269339,21.4,30.4,0,-4180,-112,32
1773578948.2899833,21.4,30.4,0,-4180,-112,32
1773578948.3110912,21.4,30.4,0,-4176,-124,44
1773578948.3314748,21.4,30.4,0,-4176,-124,44
1773578948.3523297,21.4,30.4,0,-4172,-100,44
1773578948.3727486,21.4,30.4,0,-4172,-100,44
1773578948.393188,21.4,30.4,0,-4172,-100,44
1773578948.4135618,21.4,30.4,0,-4192,-112,56
1773578948.4337304,21.4,30.4,0,-4192,-112,56
1773578948.454211,21.4,30.4,0,-4156,-120,60
1773578948.4746249,21.4,30.4,0,-4156,-120,60
1773578948.4954402,21.4,30.4,0,-4156,-120,60
1773578948.5158384,21.4,30.4,0,-4180,-120,60
1773578948.5411375,21.4,30.4,0,-4180,-120,60
1773578948.5618749,21.4,30.4,0,-4188,-108,68
1773578948.5825198,21.4,30.4,0,-4188,-108,68
1773578948.603137,21.4,30.4,0,-4188,-108,68
1773578948.623756,21.4,30.4,0,-4176,-120,72
1773578948.6444585,21.4,30.4,0,-4176,-120,72
1773578948.6647203,21.4,30.4,0,-4172,-124,32
1773578948.6854234,21.4,30.4,0,-4172,-124,32
1773578948.70591,21.4,30.4,0,-4172,-124,32
1773578948.726196,21.4,30.4,0,-4176,-104,40
1773578948.7466893,21.4,30.4,0,-4176,-104,40
1773578948.7671201,21.4,30.4,0,-4176,-104,40
1773578948.7877946,21.4,30.4,0,-4188,-112,64
1773578948.8084,21.4,30.4,0,-4188,-112,64
1773578948.8287191,21.4,30.4,0,-4188,-112,40
1773578948.849429,21.4,30.4,0,-4188,-112,40
1773578948.869932,21.4,30.4,0,-4188,-112,40
1773578948.8903952,21.4,30.4,0,-4172,-128,52
1773578948.9108794,21.4,30.4,0,-4172,-128,52
1773578948.9315574,21.4,30.4,0,-4164,-112,48
1773578948.953112,21.4,30.4,0,-4164,-112,48
1773578948.974051,21.4,30.4,0,-4164,-112,48
1773578948.9944727,21.4,30.4,0,-4164,-80,52
1773578949.0148242,21.4,30.4,0,-4164,-80,52
1773578949.035324,21.4,30.4,0,-4164,-80,52
1773578949.0559447,21.4,30.4,0,-4184,-132,64
1773578949.0766978,21.4,30.4,0,-4184,-132,64
1773578949.09732,21.4,30.4,0,-4184,-108,60
1773578949.117771,21.4,30.4,0,-4184,-108,60
1773578949.1380587,21.4,30.4,0,-4184,-108,60
1773578949.158322,21.4,30.4,0,-4176,-100,64
1773578949.1789827,21.4,30.4,0,-4176,-100,64
1773578949.1995344,21.4,30.4,0,-4164,-116,60
1773578949.2205184,21.4,30.4,0,-4164,-116,60
1773578949.241398,21.4,30.4,0,-4164,-116,60
1773578949.2617204,21.4,30.4,0,-4176,-104,60
1773578949.2826142,21.4,30.4,0,-4176,-104,60
1773578949.3037562,21.4,30.4,0,-4176,-120,64
1773578949.324179,21.4,30.4,0,-4176,-120,64
1773578949.344855,21.4,30.4,0,-4176,-120,64
1773578949.3654046,21.4,30.4,0,-4156,-108,56
1773578949.3856046,21.4,30.4,0,-4156,-108,56
1773578949.4060028,21.4,30.4,0,-4156,-108,56
1773578949.426382,21.4,30.4,0,-4164,-112,44
1773578949.4467,21.4,30.4,0,-4164,-112,44
1773578949.4673538,21.4,30.4,0,-4180,-84,48
1773578949.4875147,21.4,30.4,0,-4180,-84,48
1773578949.5079095,21.4,30.4,0,-4180,-84,48
1773578949.5283625,21.4,30.4,0,-4180,-96,60
1773578949.5492694,21.4,30.4,0,-4180,-96,60
1773578949.569975,21.4,30.4,0,-4152,-120,52
1773578949.5903363,21.4,30.4,0,-4152,-120,52
1773578949.6108427,21.4,30.4,0,-4152,-120,52
1773578949.6311524,21.4,30.4,0,-4184,-124,48
1773578949.6516426,21.4,30.4,0,-4184,-124,48
1773578949.6722965,21.4,30.4,0,-4176,-88,52
1773578949.6929338,21.4,30.4,0,-4176,-88,52
1773578949.7132318,21.4,30.4,0,-4176,-88,52
1773578949.7337744,21.4,30.4,0,-4176,-108,60
1773578949.7539666,21.4,30.4,0,-4176,-108,60
1773578949.774528,21.4,30.4,0,-4176,-108,60
1773578949.795251,21.4,30.4,0,-4180,-112,56
1773578949.8156567,21.4,30.4,0,-4180,-112,56
1773578949.8359828,21.4,30.4,0,-4164,-104,56
1773578949.856845,21.4,30.4,0,-4164,-104,56
1773578949.8774815,21.4,30.4,0,-4164,-104,56
1773578949.8979666,21.4,30.4,0,-4168,-100,60
1773578949.9185734,21.4,30.4,0,-4168,-100,60
1773578949.9390244,21.4,30.4,0,-4172,-88,52
1773578949.9595048,21.4,30.4,0,-4172,-88,52
1773578949.9801157,21.4,30.4,0,-4172,-88,52
1773578950.0006974,21.4,30.4,0,-4176,-108,44
1773578950.0211122,21.4,30.4,0,-4176,-108,44
1773578950.0421271,21.4,30.4,0,-4176,-108,44
1773578950.0627043,21.4,30.4,0,-4164,-112,60
1773578950.082968,21.4,30.4,0,-4164,-112,60
1773578950.103403,21.4,30.4,0,-4168,-72,84
1773578950.1238492,21.4,30.4,0,-4168,-72,84
1773578950.144293,21.4,30.4,0,-4168,-72,84
1773578950.1649473,21.4,30.4,0,-4176,-80,56
1773578950.186752,21.4,30.4,0,-4176,-80,56
1773578950.2074194,21.4,30.4,0,-4156,-116,56
1773578950.2280316,21.4,30.4,0,-4156,-116,56
1773578950.2488189,21.4,30.4,0,-4156,-116,56
1773578950.2691545,21.4,30.4,0,-4156,-116,56
1773578950.2898664,21.4,30.4,0,-4176,-132,44
1773578950.310428,21.4,30.4,0,-4176,-132,44
1773578950.3308687,21.4,30.4,0,-4176,-132,44
1773578950.3515518,21.4,30.4,0,-4176,-148,28
1773578950.3718433,21.4,30.4,0,-4176,-148,28
1773578950.392775,21.4,30.4,0,-4184,-172,96
1773578950.4131331,21.4,30.4,0,-4184,-172,96
1773578950.4334433,21.4,30.4,0,-4184,-172,96
1773578950.4539435,21.4,30.4,0,-4160,-1648,-1076
1773578950.4744174,21.4,30.4,0,-4160,-1648,-1076
1773578950.4950218,21.4,30.4,0,-3760,-612,252
1773578950.5159087,21.4,30.4,0,-3760,-612,252
1773578950.536174,21.4,30.4,0,-3760,-612,252
1773578950.5567954,21.4,30.4,0,-4040,-492,292
1773578950.577364,21.4,30.4,0,-4040,-492,292
1773578950.5977566,21.4,30.4,0,-4040,-492,292
1773578950.6184614,21.4,30.4,0,-3456,-732,372
1773578950.639225,21.4,30.4,0,-3456,-732,372
1773578950.6597977,21.4,30.4,0,-4004,-340,188
1773578950.6800075,21.4,30.4,0,-4004,-340,188
1773578950.7005677,21.4,30.4,0,-4004,-340,188
1773578950.721007,21.4,30.4,1,-4060,-256,340
1773578950.7416909,21.4,30.4,1,-4060,-256,340
1773578950.7619762,21.4,30.4,1,-4252,-408,496
1773578950.782365,21.4,30.4,1,-4252,-408,496
1773578950.8035085,21.4,30.4,1,-4252,-408,496
1773578950.8242295,21.4,30.4,1,-4188,-116,352
1773578950.845778,21.4,30.4,1,-4188,-116,352
1773578950.8663745,21.4,30.4,1,-4212,-136,408
1773578950.8871162,21.4,30.4,1,-4212,-136,408
1773578950.907441,21.4,30.4,1,-4212,-136,408
1773578950.9279256,21.4,30.4,1,-4212,-236,472
1773578950.9483612,21.4,30.4,1,-4212,-236,472
1773578950.9687862,21.4,30.4,1,-4212,-236,472
1773578950.9895198,21.4,30.4,1,-4124,-104,404
1773578951.0101316,21.4,30.4,1,-4124,-104,404
1773578951.0306864,21.4,30.4,1,-4220,-132,424
1773578951.0512884,21.4,30.4,1,-4220,-132,424
1773578951.072309,21.4,30.4,1,-4220,-132,424
1773578951.0932107,21.4,30.4,1,-4096,-192,420
1773578951.1139445,21.4,30.4,1,-4096,-192,420
1773578951.1347408,21.4,30.4,1,-4248,-88,372
1773578951.1553197,21.4,30.4,1,-4248,-88,372
1773578951.175882,21.4,30.4,1,-4248,-88,372
1773578951.1965778,21.4,30.4,1,-4120,-24,388
1773578951.2171092,21.4,30.4,1,-4120,-24,388
1773578951.2375305,21.4,30.4,0,-4240,-20,436
1773578951.2580848,21.4,30.4,0,-4240,-20,436
1773578951.2786567,21.4,30.4,0,-4240,-20,436
1773578951.299361,21.4,30.4,0,-4132,120,372
1773578951.3199794,21.4,30.4,0,-4132,120,372
1773578951.3404012,21.4,30.4,0,-4132,120,372
1773578951.3607936,21.4,30.4,0,-4272,120,356
1773578951.381476,21.4,30.4,0,-4272,120,356
1773578951.4018426,21.4,30.4,0,-4140,88,324
1773578951.4225361,21.4,30.4,0,-4140,88,324
1773578951.442757,21.4,30.4,0,-4140,88,324
1773578951.4632578,21.4,30.4,0,-4204,180,288
1773578951.4841118,21.4,30.4,0,-4204,180,288
1773578951.5042744,21.4,30.4,0,-4196,80,236
1773578951.5245345,21.4,30.4,0,-4196,80,236
1773578951.5456297,21.4,30.4,0,-4196,80,236
1773578951.5660489,21.4,30.4,0,-4204,76,220
1773578951.5869892,21.4,30.4,0,-4204,76,220
1773578951.6073105,21.4,30.4,0,-4204,76,220
1773578951.6279533,21.4,30.4,0,-4176,32,184
1773578951.6486645,21.4,30.4,0,-4176,32,184
1773578951.669173,21.4,30.4,0,-4196,32,180
1773578951.6896796,21.4,30.4,0,-4196,32,180
1773578951.71006,21.4,30.4,0,-4196,32,180
1773578951.7304878,21.4,30.4,0,-4192,132,204
1773578951.7509956,21.4,30.4,0,-4192,132,204
1773578951.7716153,21.4,30.4,0,-4216,116,176
1773578951.792007,21.4,30.4,0,-4216,116,176
1773578951.8123605,21.4,30.4,0,-4216,116,176
1773578951.833027,21.4,30.4,0,-4192,104,144
1773578951.8533225,21.4,30.4,0,-4192,104,144
1773578951.8736076,21.4,30.4,0,-4180,16,128
1773578951.8939674,21.4,30.4,0,-4180,16,128
1773578951.9145925,21.4,30.4,0,-4180,16,128
1773578951.9349759,21.4,30.4,0,-4172,-32,100
1773578951.9552355,21.4,30.4,0,-4172,-32,100
1773578951.9759417,21.4,30.4,0,-4172,-32,100
1773578951.9964526,21.4,30.4,0,-4192,-20,112
1773578952.0171473,21.4,30.4,0,-4192,-20,112
1773578952.0378437,21.4,30.4,0,-4176,-40,88
1773578952.0582972,21.4,30.4,0,-4176,-40,88
1773578952.0789683,21.4,30.4,0,-4176,-40,88
1773578952.0996974,21.4,30.4,0,-4184,-52,80
1773578952.1204128,21.4,30.4,0,-4184,-52,80
1773578952.1407158,21.4,30.4,0,-4184,-72,64
1773578952.1610417,21.4,30.4,0,-4184,-72,64
1773578952.1833277,21.4,30.4,0,-4184,-72,64
1773578952.2036517,21.4,30.4,0,-4184,-64,104
1773578952.2256775,21.4,30.4,0,-4184,-64,104
1773578952.2465782,21.4,30.4,0,-4180,-84,88
1773578952.267082,21.4,30.4,0,-4180,-84,88
1773578952.2877796,21.4,30.4,0,-4180,-84,88
1773578952.3084784,21.4,30.4,0,-4180,-84,88
1773578952.3288548,21.4,30.6,0,-4192,-64,92
1773578952.3496294,21.4,30.6,0,-4192,-64,92
1773578952.371727,21.4,30.6,0,-4192,-64,92
1773578952.3924553,21.4,30.6,0,-4180,-28,100
1773578952.4133286,21.4,30.6,0,-4180,-28,100
1773578952.4339368,21.4,30.6,0,-4200,0,104
1773578952.4545298,21.4,30.6,0,-4200,0,104
1773578952.4749835,21.4,30.6,0,-4200,0,104
1773578952.4954972,21.4,30.6,0,-4180,-4,128
1773578952.51612,21.4,30.6,0,-4180,-4,128
1773578952.5365467,21.4,30.6,0,-4192,36,120
1773578952.5568254,21.4,30.6,0,-4192,36,120
1773578952.5775962,21.4,30.6,0,-4192,36,120
1773578952.597844,21.4,30.6,0,-4160,44,136
1773578952.6186032,21.4,30.6,0,-4160,44,136
1773578952.6390727,21.4,30.6,0,-4160,44,136
1773578952.6593704,21.4,30.6,0,-4196,-32,108
1773578952.6798198,21.4,30.6,0,-4196,-32,108
1773578952.7005084,21.4,30.6,0,-4164,-48,108
1773578952.7209356,21.4,30.6,0,-4164,-48,108
1773578952.7416275,21.4,30.6,0,-4164,-48,108
1773578952.762284,21.4,30.6,0,-4176,-28,100
1773578952.7828963,21.4,30.6,0,-4176,-28,100
1773578952.8033397,21.4,30.6,0,-4180,-56,104
1773578952.8241405,21.4,30.6,0,-4180,-56,104
1773578952.844808,21.4,30.6,0,-4180,-56,104
1773578952.8652956,21.4,30.6,0,-4176,-52,80
1773578952.885931,21.4,30.6,0,-4176,-52,80
1773578952.9065244,21.4,30.6,0,-4176,-52,80
1773578952.9268012,21.4,30.6,0,-4168,-88,88
1773578952.947278,21.4,30.6,0,-4168,-88,88
1773578952.968104,21.4,30.6,0,-4176,-80,92
1773578952.9886975,21.4,30.6,0,-4176,-80,92
1773578953.0093918,21.4,30.6,0,-4176,-80,92
1773578953.0300162,21.4,30.6,0,-4176,-104,64
1773578953.0506678,21.4,30.6,0,-4176,-104,64
1773578953.0713654,21.4,30.6,0,-4192,-76,76
1773578953.092136,21.4,30.6,0,-4192,-76,76
1773578953.1128786,21.4,30.6,0,-4192,-76,76
1773578953.133519,21.4,30.6,0,-4184,-80,112
1773578953.1541805,21.4,30.6,0,-4184,-80,112
1773578953.174574,21.4,30.6,0,-4180,-100,76
1773578953.1950562,21.4,30.6,0,-4180,-100,76
1773578953.2156484,21.4,30.6,0,-4180,-100,76
1773578953.236797,21.4,30.6,0,-4168,-72,96
1773578953.25751,21.4,30.6,0,-4168,-72,96
1773578953.277888,21.4,30.6,0,-4180,28,116
1773578953.2984202,21.4,30.6,0,-4180,28,116
1773578953.3188875,21.4,30.6,0,-4180,28,116
1773578953.3392591,21.4,30.6,0,-4184,80,132
1773578953.3601658,21.4,30.6,0,-4184,80,132
1773578953.3805494,21.4,30.6,0,-4184,80,132
1773578953.4031575,21.4,30.6,0,-4188,88,188
1773578953.4235551,21.4,30.6,0,-4188,88,188
1773578953.4441638,21.4,30.6,0,-4200,112,184
1773578953.4648418,21.4,30.6,0,-4200,112,184
1773578953.485964,21.4,30.6,0,-4200,112,184
1773578953.5063229,21.4,30.6,0,-4192,100,196
1773578953.5266871,21.4,30.6,0,-4192,100,196
1773578953.5470188,21.4,30.6,0,-4184,116,188
1773578953.5675457,21.4,30.6,0,-4184,116,188
1773578953.5890555,21.4,30.6,0,-4184,116,188
1773578953.6093533,21.4,30.6,0,-4184,96,204
1773578953.6296709,21.4,30.6,0,-4184,96,204
1773578953.6504567,21.4,30.6,0,-4176,76,228
1773578953.6710708,21.4,30.6,0,-4176,76,228
1773578953.6915784,21.4,30.6,0,-4176,76,228
1773578953.7118628,21.4,30.6,0,-4188,80,216
1773578953.7323298,21.4,30.6,0,-4188,80,216
1773578953.7529166,21.4,30.6,0,-4188,80,216
1773578953.7735598,21.4,30.6,0,-4188,140,288
1773578953.7941258,21.4,30.6,0,-4188,140,288
1773578953.8148272,21.4,30.6,0,-4200,108,320
1773578953.8351395,21.4,30.6,0,-4200,108,320
1773578953.8559651,21.4,30.6,0,-4200,108,320
1773578953.8764508,21.4,30.6,0,-4212,96,312
1773578953.8971174,21.4,30.6,0,-4212,96,312
1773578953.9182644,21.4,30.6,0,-4204,44,328
1773578953.9389062,21.4,30.6,0,-4204,44,328
1773578953.9598413,21.4,30.6,0,-4204,44,328
1773578953.9802692,21.4,30.6,0,-4180,44,364
1773578954.0007856,21.4,30.6,0,-4180,44,364
1773578954.0212145,21.4,30.6,0,-4172,32,388
1773578954.041766,21.4,30.6,0,-4172,32,388
1773578954.062444,21.4,30.6,0,-4172,32,388
1773578954.0850246,21.4,30.6,0,-4152,-12,416
1773578954.1055171,21.4,30.6,0,-4152,-12,416
1773578954.1259327,21.4,30.6,0,-4152,-12,416
1773578954.1462255,21.4,30.6,0,-4176,-64,404
1773578954.166792,21.4,30.6,0,-4176,-64,404
1773578954.1872797,21.4,30.6,0,-4148,-144,428
1773578954.2077124,21.4,30.6,0,-4148,-144,428
1773578954.2279415,21.4,30.6,0,-4148,-144,428
1773578954.2486763,21.4,30.6,0,-4172,-204,388
1773578954.2689905,21.4,30.6,0,-4172,-204,388
1773578954.2910252,21.4,30.6,0,-4168,-232,388
1773578954.311357,21.4,30.6,0,-4168,-232,388
1773578954.332136,21.4,30.6,0,-4168,-232,388
1773578954.3529067,21.4,30.6,0,-4168,-232,388
1773578954.3735597,21.4,30.7,0,-4116,-232,364
1773578954.394333,21.4,30.7,0,-4116,-232,364
1773578954.4150555,21.4,30.7,0,-4116,-232,364
1773578954.435699,21.4,30.7,0,-4180,-212,368
1773578954.456266,21.4,30.7,0,-4180,-212,368
1773578954.4769487,21.4,30.7,0,-4128,-216,372
1773578954.4976394,21.4,30.7,0,-4128,-216,372
1773578954.5182,21.4,30.7,0,-4128,-216,372
1773578954.5388746,21.4,30.7,0,-4200,-228,356
1773578954.559516,21.4,30.7,0,-4200,-228,356
1773578954.5800786,21.4,30.7,0,-4156,-204,332
1773578954.6008954,21.4,30.7,0,-4156,-204,332
1773578954.6214113,21.4,30.7,0,-4156,-204,332
1773578954.6416852,21.4,30.7,0,-4172,-232,328
1773578954.6623895,21.4,30.7,0,-4172,-232,328
1773578954.6831422,21.4,30.7,0,-4172,-232,328
1773578954.7039154,21.4,30.7,0,-4164,-252,328
1773578954.7244167,21.4,30.7,0,-4164,-252,328
1773578954.7448385,21.4,30.7,0,-4144,-336,304
1773578954.7652197,21.4,30.7,0,-4144,-336,304
1773578954.7860153,21.4,30.7,0,-4144,-336,304
1773578954.806748,21.4,30.7,0,-4992,-4332,1616
1773578954.8271255,21.4,30.7,0,-4992,-4332,1616
1773578954.8477757,21.4,30.7,0,-4456,-2784,-292
1773578954.8687057,21.4,30.7,0,-4456,-2784,-292
1773578954.8889365,21.4,30.7,0,-4456,-2784,-292
1773578954.9098344,21.4,30.7,0,-4256,600,188
1773578954.93053,21.4,30.7,0,-4256,600,188
1773578954.9513757,21.4,30.7,0,-4240,-444,108
1773578954.97178,21.4,30.7,0,-4240,-444,108
1773578954.992633,21.4,30.7,0,-4240,-444,108
1773578955.0129712,21.4,30.7,0,-4240,76,-28
1773578955.0340688,21.4,30.7,0,-4240,76,-28
1773578955.0548973,21.4,30.7,0,-4240,76,-28
1773578955.0752833,21.4,30.7,0,-4164,-44,60
1773578955.0956454,21.4,30.7,0,-4164,-44,60
1773578955.1163435,21.4,30.7,0,-4160,-52,64
1773578955.1369252,21.4,30.7,0,-4160,-52,64
1773578955.1573436,21.4,30.7,0,-4160,-52,64
1773578955.1779149,21.4,30.7,0,-4204,-40,64
1773578955.1982808,21.4,30.7,0,-4204,-40,64
1773578955.2190433,21.4,30.7,0,-4168,-104,56
1773578955.2397506,21.4,30.7,0,-4168,-104,56
1773578955.2603753,21.4,30.7,0,-4168,-104,56
1773578955.2820559,21.4,30.7,0,-4184,-88,32
1773578955.302374,21.4,30.7,0,-4184,-88,32
1773578955.3229346,21.4,30.7,0,-4180,-80,28
1773578955.3434749,21.4,30.7,0,-4180,-80,28
1773578955.3641043,21.4,30.7,0,-4180,-80,28
1773578955.385548,21.4,30.7,0,-4180,-120,48
1773578955.4058914,21.4,30.7,0,-4180,-120,48
1773578955.4265823,21.4,30.7,0,-4180,-120,48
1773578955.447039,21.4,30.7,0,-4180,-92,40
1773578955.4681792,21.4,30.7,0,-4180,-92,40
1773578955.4887478,21.4,30.7,0,-4160,-108,24
1773578955.5092475,21.4,30.7,0,-4160,-108,24
1773578955.5295253,21.4,30.7,0,-4160,-108,24
1773578955.5503235,21.4,30.7,0,-4176,-108,48
1773578955.5715039,21.4,30.7,0,-4176,-108,48
1773578955.5923133,21.4,30.7,0,-4156,-132,72
1773578955.6132033,21.4,30.7,0,-4156,-132,72
1773578955.6340995,21.4,30.7,0,-4156,-132,72
1773578955.6546474,21.4,30.7,0,-4160,-104,52
1773578955.6748934,21.4,30.7,0,-4160,-104,52
1773578955.6954327,21.4,30.7,0,-4180,-128,64
1773578955.715947,21.4,30.7,0,-4180,-128,64
1773578955.7361228,21.4,30.7,0,-4180,-128,64
1773578955.7567534,21.4,30.7,0,-4172,-104,68
1773578955.7774417,21.4,30.7,0,-4172,-104,68
1773578955.797867,21.4,30.7,0,-4176,-96,52
1773578955.8188133,21.4,30.7,0,-4176,-96,52
1773578955.839141,21.4,30.7,0,-4176,-96,52
1773578955.8594642,21.4,30.7,0,-4180,-136,60
1773578955.8814855,21.4,30.7,0,-4180,-136,60
1773578955.9023821,21.4,30.7,0,-4180,-136,60
1773578955.92303,21.4,30.7,0,-4196,-76,36
1773578955.9432817,21.4,30.7,0,-4196,-76,36
1773578955.963969,21.4,30.7,0,-4172,-112,64
1773578955.9853837,21.4,30.7,0,-4172,-112,64
1773578956.0058253,21.4,30.7,0,-4172,-112,64
1773578956.0263314,21.4,30.7,0,-4172,-96,56
1773578956.046852,21.4,30.7,0,-4172,-96,56
1773578956.067287,21.4,30.7,0,-4156,-88,48
1773578956.0877106,21.4,30.7,0,-4156,-88,48
1773578956.1078696,21.4,30.7,0,-4156,-88,48
1773578956.1285348,21.4,30.7,0,-4192,-108,68
1773578956.1488402,21.4,30.7,0,-4192,-108,68
1773578956.169497,21.4,30.7,0,-4176,-116,52
1773578956.190251,21.4,30.7,0,-4176,-116,52
1773578956.2108588,21.4,30.7,0,-4176,-116,52
1773578956.2310398,21.4,30.7,0,-4176,-112,44
1773578956.2516494,21.4,30.7,0,-4176,-112,44
1773578956.272064,21.4,30.7,0,-4176,-112,44
1773578956.292392,21.4,30.7,0,-4176,-96,24
1773578956.3128023,21.4,30.7,0,-4176,-96,24
1773578956.3333688,21.4,30.7,0,-4176,-100,60
1773578956.3539925,21.4,30.7,0,-4176,-100,60
1773578956.374584,21.4,30.7,0,-4176,-100,60
1773578956.395091,21.4,30.7,0,-4176,-100,60
1773578956.4153936,21.3,30.7,0,-4204,-96,48
1773578956.435673,21.3,30.7,0,-4204,-96,48
1773578956.4559152,21.3,30.7,0,-4204,-96,48
1773578956.4762678,21.3,30.7,0,-4168,-80,56
1773578956.4968941,21.3,30.7,0,-4168,-80,56
1773578956.5174327,21.3,30.7,0,-4156,-104,56
1773578956.537858,21.3,30.7,0,-4156,-104,56
1773578956.5584114,21.3,30.7,0,-4156,-104,56
1773578956.5810843,21.3,30.7,0,-4196,-132,44
1773578956.6015542,21.3,30.7,0,-4196,-132,44
1773578956.6218622,21.3,30.7,0,-4204,-104,52
1773578956.6424234,21.3,30.7,0,-4204,-104,52
1773578956.663132,21.3,30.7,0,-4204,-104,52
1773578956.685623,21.3,30.7,0,-4180,-88,72
1773578956.7062988,21.3,30.7,0,-4180,-88,72
1773578956.7267046,21.3,30.7,0,-4192,-92,56
1773578956.7473655,21.3,30.7,0,-4192,-92,56
1773578956.768113,21.3,30.7,0,-4192,-92,56
1773578956.7884202,21.3,30.7,0,-4172,-100,56
1773578956.808764,21.3,30.7,0,-4172,-100,56
1773578956.8290393,21.3,30.7,0,-4172,-100,56
1773578956.8493104,21.3,30.7,0,-4188,-120,28
1773578956.8697577,21.3,30.7,0,-4188,-120,28
1773578956.8901792,21.3,30.7,0,-4172,-112,48
1773578956.9106143,21.3,30.7,0,-4172,-112,48
1773578956.9311264,21.3,30.7,0,-4172,-112,48
1773578956.9520378,21.3,30.7,0,-4180,-120,56
1773578956.972525,21.3,30.7,0,-4180,-120,56
1773578956.992809,21.3,30.7,0,-4168,-108,64
1773578957.0133061,21.3,30.7,0,-4168,-108,64
1773578957.0338027,21.3,30.7,0,-4168,-108,64
1773578957.0545454,21.3,30.7,0,-4172,-104,48
1773578957.0755322,21.3,30.7,0,-4172,-104,48
1773578957.096213,21.3,30.7,0,-4172,-104,48
1773578957.1171293,21.3,30.7,0,-4168,-92,48
1773578957.1379368,21.3,30.7,0,-4168,-92,48
1773578957.1593914,21.3,30.7,0,-4188,-88,44
1773578957.180372,21.3,30.7,0,-4188,-88,44
1773578957.2011054,21.3,30.7,0,-4188,-88,44
1773578957.221475,21.3,30.7,0,-4164,-100,68
1773578957.2422557,21.3,30.7,0,-4164,-100,68
1773578957.2625825,21.3,30.7,0,-4192,-128,56
1773578957.283146,21.3,30.7,0,-4192,-128,56
1773578957.3035302,21.3,30.7,0,-4192,-128,56
1773578957.3239434,21.3,30.7,0,-4164,-112,44
1773578957.3447893,21.3,30.7,0,-4164,-112,44
1773578957.3653,21.3,30.7,0,-4180,-84,60
1773578957.3865142,21.3,30.7,0,-4180,-84,60
1773578957.4070003,21.3,30.7,0,-4180,-84,60
1773578957.4275944,21.3,30.7,0,-4180,-108,72
1773578957.4479606,21.3,30.7,0,-4180,-108,72
1773578957.4686418,21.3,30.7,0,-4188,-124,52
1773578957.4892929,21.3,30.7,0,-4188,-124,52
1773578957.5104518,21.3,30.7,0,-4188,-124,52
1773578957.5307462,21.3,30.7,0,-4180,-108,52
1773578957.551309,21.3,30.7,0,-4180,-108,52
1773578957.5720327,21.3,30.7,0,-4180,-108,52
1773578957.5925999,21.3,30.7,0,-4172,-112,56
1773578957.613165,21.3,30.7,0,-4172,-112,56
1773578957.6337962,21.3,30.7,0,-4176,-104,60
1773578957.6544673,21.3,30.7,0,-4176,-104,60
1773578957.6751282,21.3,30.7,0,-4176,-104,60
1773578957.6959422,21.3,30.7,0,-4184,-116,72
1773578957.7164845,21.3,30.7,0,-4184,-116,72
1773578957.7368245,21.3,30.7,0,-4164,-112,36
1773578957.7572188,21.3,30.7,0,-4164,-112,36
1773578957.7778578,21.3,30.7,0,-4164,-112,36
1773578957.7985106,21.3,30.7,0,-4176,-112,60
1773578957.8200076,21.3,30.7,0,-4176,-112,60
1773578957.8403385,21.3,30.7,0,-4168,-124,44
1773578957.8606994,21.3,30.7,0,-4168,-124,44
1773578957.8810556,21.3,30.7,0,-4168,-124,44
1773578957.9018416,21.3,30.7,0,-4180,-100,52
1773578957.9222527,21.3,30.7,0,-4180,-100,52
1773578957.942974,21.3,30.7,0,-4180,-100,52
1773578957.9635463,21.3,30.7,0,-4180,-88,56
1773578957.9840782,21.3,30.7,0,-4180,-88,56
1773578958.004712,21.3,30.7,0,-4172,-116,48
1773578958.0253665,21.3,30.7,0,-4172,-116,48
1773578958.0462368,21.3,30.7,0,-4172,-116,48
1773578958.0672786,21.3,30.7,0,-4172,-116,52
1773578958.0875428,21.3,30.7,0,-4172,-116,52
1773578958.1082914,21.3,30.7,0,-4180,-124,56
1773578958.128963,21.3,30.7,0,-4180,-124,56
1773578958.1496735,21.3,30.7,0,-4180,-124,56
1773578958.1698718,21.3,30.7,0,-4180,-88,52
1773578958.1906607,21.3,30.7,0,-4180,-88,52
1773578958.211092,21.3,30.7,0,-4176,-116,40
1773578958.2313035,21.3,30.7,0,-4176,-116,40
1773578958.2523804,21.3,30.7,0,-4176,-116,40
1773578958.2729034,21.3,30.7,0,-4192,-100,40
1773578958.2937293,21.3,30.7,0,-4192,-100,40
1773578958.3141706,21.3,30.7,0,-4192,-100,40
1773578958.3353355,21.3,30.7,0,-4176,-104,48
1773578958.3557038,21.3,30.7,0,-4176,-104,48
1773578958.3763053,21.3,30.7,0,-4188,-120,40
1773578958.3965938,21.3,30.7,0,-4188,-120,40
1773578958.4172246,21.3,30.7,0,-4188,-120,40
1773578958.4378352,21.3,30.7,0,-4188,-120,40
1773578958.458109,21.3,30.8,0,-4188,-92,52
1773578958.4785862,21.3,30.8,0,-4188,-92,52
1773578958.498725,21.3,30.8,0,-4188,-92,52
1773578958.519709,21.3,30.8,0,-4176,-112,56
1773578958.539975,21.3,30.8,0,-4176,-112,56
1773578958.5606194,21.3,30.8,0,-4160,-92,64
1773578958.5817811,21.3,30.8,0,-4160,-92,64
1773578958.6023712,21.3,30.8,0,-4160,-92,64
1773578958.6229978,21.3,30.8,0,-4168,-116,60
1773578958.6436298,21.3,30.8,0,-4168,-116,60
1773578958.664172,21.3,30.8,0,-4176,-128,52
1773578958.6850517,21.3,30.8,0,-4176,-128,52
1773578958.7059002,21.3,30.8,0,-4176,-128,52
1773578958.7266846,21.3,30.8,0,-4148,-100,24
1773578958.747535,21.3,30.8,0,-4148,-100,24
1773578958.770464,21.3,30.8,0,-4172,-120,64
1773578958.793223,21.3,30.8,0,-4172,-120,64
1773578958.8144689,21.3,30.8,0,-4172,-120,64
1773578958.8368356,21.3,30.8,0,-4160,-112,56
1773578958.857458,21.3,30.8,0,-4160,-112,56
1773578958.8782945,21.3,30.8,0,-4184,-100,64
1773578958.8996592,21.3,30.8,0,-4184,-100,64
1773578958.9200304,21.3,30.8,0,-4184,-100,64
1773578958.9407377,21.3,30.8,0,-4180,-104,48
1773578958.9615428,21.3,30.8,0,-4180,-104,48
1773578958.9824631,21.3,30.8,0,-4176,-100,48
1773578959.0036628,21.3,30.8,0,-4176,-100,48
1773578959.024566,21.3,30.8,0,-4176,-100,48
1773578959.0448716,21.3,30.8,0,-4176,-112,56
1773578959.0658612,21.3,30.8,0,-4176,-112,56
1773578959.088947,21.3,30.8,0,-4180,-104,52
1773578959.109373,21.3,30.8,0,-4180,-104,52
1773578959.129955,21.3,30.8,0,-4180,-104,52
1773578959.152637,21.3,30.8,0,-4184,-112,52
1773578959.1736412,21.3,30.8,0,-4184,-112,52
1773578959.1942277,21.3,30.8,0,-4176,-124,56
1773578959.2152197,21.3,30.8,0,-4176,-124,56
1773578959.236326,21.3,30.8,0,-4176,-124,56
1773578959.2566242,21.3,30.8,0,-4172,-104,44
1773578959.277504,21.3,30.8,0,-4172,-104,44
1773578959.2981198,21.3,30.8,0,-4160,-120,64
1773578959.3205369,21.3,30.8,0,-4160,-120,64
1773578959.34117,21.3,30.8,0,-4160,-120,64
1773578959.3627853,21.3,30.8,0,-4176,-116,60
1773578959.383657,21.3,30.8,0,-4176,-116,60
1773578959.4042664,21.3,30.8,0,-4172,-108,52
1773578959.424904,21.3,30.8,0,-4172,-108,52
1773578959.4461436,21.3,30.8,0,-4172,-108,52
1773578959.4676754,21.3,30.8,0,-4172,-88,48
1773578959.4885345,21.3,30.8,0,-4172,-88,48
1773578959.5090168,21.3,30.8,0,-4172,-88,48
1773578959.5295415,21.3,30.8,0,-4152,-116,48
1773578959.5506923,21.3,30.8,0,-4152,-116,48
1773578959.5721695,21.3,30.8,0,-4180,-124,32
1773578959.5933058,21.3,30.8,0,-4180,-124,32
1773578959.614344,21.3,30.8,0,-4180,-124,32
1773578959.6377394,21.3,30.8,0,-4184,-108,60
1773578959.6586468,21.3,30.8,0,-4184,-108,60
1773578959.6789765,21.3,30.8,0,-4184,-88,52
1773578959.6999958,21.3,30.8,0,-4184,-88,52
1773578959.7206569,21.3,30.8,0,-4184,-88,52
1773578959.741332,21.3,30.8,0,-4176,-116,52
1773578959.7620945,21.3,30.8,0,-4176,-116,52
1773578959.7828362,21.3,30.8,0,-4188,-116,40
1773578959.8034565,21.3,30.8,0,-4188,-116,40
1773578959.824067,21.3,30.8,0,-4188,-116,40
1773578959.8449533,21.3,30.8,0,-4180,-76,48
1773578959.8657956,21.3,30.8,0,-4180,-76,48
1773578959.886975,21.3,30.8,0,-4148,-128,64
1773578959.9076767,21.3,30.8,0,-4148,-128,64
1773578959.9287474,21.3,30.8,0,-4148,-128,64
1773578959.949457,21.3,30.8,0,-4184,-80,60
1773578959.9697738,21.3,30.8,0,-4184,-80,60
1773578959.9901724,21.3,30.8,0,-4160,-120,48
1773578960.0110755,21.3,30.8,0,-4160,-120,48
1773578960.031518,21.3,30.8,0,-4160,-120,48
1773578960.052299,21.3,30.8,0,-4192,-108,60
1773578960.0730186,21.3,30.8,0,-4192,-108,60
1773578960.0934381,21.3,30.8,0,-4164,-88,52
1773578960.1142359,21.3,30.8,0,-4164,-88,52
1773578960.1361115,21.3,30.8,0,-4164,-88,52
1773578960.157137,21.3,30.8,0,-4172,-104,48
1773578960.178122,21.3,30.8,0,-4172,-104,48
1773578960.1986227,21.3,30.8,0,-4172,-104,48
1773578960.2193036,21.3,30.8,0,-4168,-112,48
1773578960.240344,21.3,30.8,0,-4168,-112,48
1773578960.2611067,21.3,30.8,0,-4176,-96,48
1773578960.2825334,21.3,30.8,0,-4176,-96,48
1773578960.3035667,21.3,30.8,0,-4176,-96,48
1773578960.3242826,21.3,30.8,0,-4164,-84,48
1773578960.3455334,21.3,30.8,0,-4164,-84,48
1773578960.3662763,21.3,30.8,0,-4164,-120,60
1773578960.386853,21.3,30.8,0,-4164,-120,60
1773578960.407275,21.3,30.8,0,-4164,-120,60
1773578960.4287848,21.3,30.8,0,-4160,-120,52
1773578960.4499927,21.3,30.8,0,-4160,-120,52
1773578960.4706125,21.3,30.8,0,-4160,-120,52
1773578960.4911716,21.3,31.0,0,-4160,-92,56
1773578960.512198,21.3,31.0,0,-4160,-92,56
1773578960.5339992,21.3,31.0,0,-4160,-92,56
1773578960.555194,21.3,31.0,0,-4176,-124,48
1773578960.5760114,21.3,31.0,0,-4176,-124,48
1773578960.59669,21.3,31.0,0,-4152,-88,40
1773578960.6175585,21.3,31.0,0,-4152,-88,40
1773578960.6384523,21.3,31.0,0,-4152,-88,40
1773578960.659508,21.3,31.0,0,-4180,-120,56
1773578960.6803021,21.3,31.0,0,-4180,-120,56
1773578960.701125,21.3,31.0,0,-4180,-120,56
1773578960.7224333,21.3,31.0,0,-4168,-128,68
1773578960.743123,21.3,31.0,0,-4168,-128,68
1773578960.7643278,21.3,31.0,0,-4176,-104,32
1773578960.7857585,21.3,31.0,0,-4176,-104,32
1773578960.806702,21.3,31.0,0,-4176,-104,32
1773578960.8273199,21.3,31.0,0,-4176,-100,56
1773578960.8481588,21.3,31.0,0,-4176,-100,56
1773578960.86983,21.3,31.0,0,-4176,-124,56
1773578960.890209,21.3,31.0,0,-4176,-124,56
1773578960.9108827,21.3,31.0,0,-4176,-124,56
1773578960.9315503,21.3,31.0,0,-4180,-112,56
1773578960.9523976,21.3,31.0,0,-4180,-112,56
1773578960.9731135,21.3,31.0,0,-4180,-104,44
1773578960.993801,21.3,31.0,0,-4180,-104,44
1773578961.0141788,21.3,31.0,0,-4180,-104,44
1773578961.0348766,21.3,31.0,0,-4184,-92,40
1773578961.0552151,21.3,31.0,0,-4184,-92,40
1773578961.0758064,21.3,31.0,0,-4168,-72,80
1773578961.096105,21.3,31.0,0,-4168,-72,80
1773578961.1167276,21.3,31.0,0,-4168,-72,80
1773578961.1377306,21.3,31.0,0,-4184,-108,40
1773578961.1582885,21.3,31.0,0,-4184,-108,40
1773578961.178737,21.3,31.0,0,-4184,-108,40
1773578961.199225,21.3,31.0,0,-4192,-112,68
1773578961.2193618,21.3,31.0,0,-4192,-112,68
1773578961.2397764,21.3,31.0,0,-4168,-124,52
1773578961.260871,21.3,31.0,0,-4168,-124,52
1773578961.2820923,21.3,31.0,0,-4168,-124,52
1773578961.3034286,21.3,31.0,0,-4160,-112,56
1773578961.3237433,21.3,31.0,0,-4160,-112,56
1773578961.3443506,21.3,31.0,0,-4180,-104,52
1773578961.365356,21.3,31.0,0,-4180,-104,52
1773578961.3864815,21.3,31.0,0,-4180,-104,52
1773578961.407314,21.3,31.0,0,-4184,-120,64
1773578961.4280856,21.3,31.0,0,-4184,-120,64
1773578961.449095,21.3,31.0,0,-4172,-120,44
1773578961.470646,21.3,31.0,0,-4172,-120,44
1773578961.4913933,21.3,31.0,0,-4172,-120,44
1773578961.512458,21.3,31.0,0,-4160,-104,40
1773578961.5342429,21.3,31.0,0,-4160,-104,40
1773578961.5547209,21.3,31.0,0,-4172,-88,52
1773578961.5750375,21.3,31.0,0,-4172,-88,52
1773578961.5959742,21.3,31.0,0,-4172,-88,52
1773578961.616416,21.3,31.0,0,-4196,-140,88
1773578961.637297,21.3,31.0,0,-4196,-140,88
1773578961.6580086,21.3,31.0,0,-4172,-116,60
1773578961.6793592,21.3,31.0,0,-4172,-116,60
1773578961.700211,21.3,31.0,0,-4172,-116,60
1773578961.7210674,21.3,31.0,0,-4172,-108,44
1773578961.741665,21.3,31.0,0,-4172,-108,44
1773578961.7628098,21.3,31.0,0,-4172,-108,44
1773578961.7836142,21.3,31.0,0,-4184,-88,64
1773578961.8041832,21.3,31.0,0,-4184,-88,64
1773578961.8249002,21.3,31.0,0,-4152,-124,48
1773578961.845769,21.3,31.0,0,-4152,-124,48
1773578961.8665218,21.3,31.0,0,-4152,-124,48
1773578961.887144,21.3,31.0,0,-4176,-132,40
1773578961.9077036,21.3,31.0,0,-4176,-132,40
1773578961.9287162,21.3,31.0,0,-4184,-92,72
1773578961.9501586,21.3,31.0,0,-4184,-92,72
1773578961.9704607,21.3,31.0,0,-4184,-92,72
1773578961.9922173,21.3,31.0,0,-4164,-104,40
1773578962.01354,21.3,31.0,0,-4164,-104,40
1773578962.0340981,21.3,31.0,0,-4188,-152,72
1773578962.054425,21.3,31.0,0,-4188,-152,72
1773578962.0750408,21.3,31.0,0,-4188,-152,72
1773578962.0953546,21.3,31.0,0,-4164,-104,44
1773578962.116043,21.3,31.0,0,-4164,-104,44
1773578962.1363246,21.3,31.0,0,-4184,-92,40
1773578962.1570203,21.3,31.0,0,-4184,-92,40
1773578962.1773615,21.3,31.0,0,-4184,-92,40
1773578962.198061,21.3,31.0,0,-4176,-76,40
1773578962.2188663,21.3,31.0,0,-4176,-76,40
1773578962.2394593,21.3,31.0,0,-4176,-76,40
1773578962.259923,21.3,31.0,0,-4172,-100,56
1773578962.2806175,21.3,31.0,0,-4172,-100,56
1773578962.3008955,21.3,31.0,0,-4160,-84,48
1773578962.3214383,21.3,31.0,0,-4160,-84,48
1773578962.3419333,21.3,31.0,0,-4160,-84,48
1773578962.3624654,21.3,31.0,0,-4164,-104,40
1773578962.3831189,21.3,31.0,0,-4164,-104,40
1773578962.4034507,21.3,31.0,0,-4188,-120,48
1773578962.4242408,21.3,31.0,0,-4188,-120,48
1773578962.4450274,21.3,31.0,0,-4188,-120,48
1773578962.465756,21.3,31.0,0,-4168,-100,60
1773578962.4860244,21.3,31.0,0,-4168,-100,60
1773578962.5064852,21.3,31.0,0,-4168,-100,60
1773578962.5279334,21.3,31.0,0,-4168,-100,60
1773578962.5487585,21.3,31.1,0,-4164,-116,44
1773578962.5692148,21.3,31.1,0,-4164,-116,44
1773578962.589911,21.3,31.1,0,-4188,-104,56
1773578962.6106079,21.3,31.1,0,-4188,-104,56
1773578962.6312366,21.3,31.1,0,-4188,-104,56
1773578962.653898,21.3,31.1,0,-4160,-96,60
1773578962.6798475,21.3,31.1,0,-4160,-96,60
1773578962.7002873,21.3,31.1,0,-4188,-108,68
1773578962.721269,21.3,31.1,0,-4188,-108,68
1773578962.7421346,21.3,31.1,0,-4188,-108,68
1773578962.7629197,21.3,31.1,0,-4180,-100,52
1773578962.7834632,21.3,31.1,0,-4180,-100,52
1773578962.804736,21.3,31.1,0,-4168,-80,56
1773578962.8257804,21.3,31.1,0,-4168,-80,56
1773578962.8463194,21.3,31.1,0,-4168,-80,56
1773578962.8669934,21.3,31.1,0,-4144,-104,52
1773578962.887822,21.3,31.1,0,-4144,-104,52
1773578962.908282,21.3,31.1,0,-4184,-104,52
1773578962.928871,21.3,31.1,0,-4184,-104,52
1773578962.9494977,21.3,31.1,0,-4184,-104,52
1773578962.971082,21.3,31.1,0,-4180,-136,64
1773578962.9916124,21.3,31.1,0,-4180,-136,64
1773578963.0125782,21.3,31.1,0,-4172,-108,48
1773578963.033824,21.3,31.1,0,-4172,-108,48
1773578963.054541,21.3,31.1,0,-4172,-108,48
1773578963.0755143,21.3,31.1,0,-4188,-116,60
1773578963.0964363,21.3,31.1,0,-4188,-116,60
1773578963.1191974,21.3,31.1,0,-4176,-92,56
1773578963.1395013,21.3,31.1,0,-4176,-92,56
1773578963.160647,21.3,31.1,0,-4176,-92,56
1773578963.1814506,21.3,31.1,0,-4168,-108,60
1773578963.2037766,21.3,31.1,0,-4168,-108,60
1773578963.2244956,21.3,31.1,0,-4172,-116,52
1773578963.2452571,21.3,31.1,0,-4172,-116,52
1773578963.2658205,21.3,31.1,0,-4172,-116,52
1773578963.2861607,21.3,31.1,0,-4172,-116,52
1773578963.3065612,21.3,31.1,0,-4172,-116,52
1773578963.3270016,21.3,31.1,0,-4176,-104,68
1773578963.3473763,21.3,31.1,0,-4176,-104,68
1773578963.3682795,21.3,31.1,0,-4176,-104,68
1773578963.388999,21.3,31.1,0,-4164,-104,40
1773578963.409885,21.3,31.1,0,-4164,-104,40
1773578963.4302685,21.3,31.1,0,-4164,-104,40
1773578963.4534566,21.3,31.1,0,-4168,-116,60
1773578963.4740195,21.3,31.1,0,-4168,-116,60
1773578963.495317,21.3,31.1,0,-4180,-84,56
1773578963.5163145,21.3,31.1,0,-4180,-84,56
1773578963.5369468,21.3,31.1,0,-4180,-84,56
1773578963.5575228,21.3,31.1,0,-4172,-84,56
1773578963.5783188,21.3,31.1,0,-4172,-84,56
