timestamp,temp,hum,mic,ax,ay,az
1773541212.7982075,23.3,33.1,0,-108,-4136,44
1773541212.8206758,23.3,33.1,0,-124,-4120,24
1773541212.8412635,23.3,33.1,0,-124,-4120,24
1773541212.8617,23.3,33.1,0,-124,-4120,24
1773541212.8822203,23.3,33.1,0,-120,-4120,60
1773541212.90311,23.3,33.1,0,-120,-4120,60
1773541212.923775,23.3,33.1,0,-112,-4116,36
1773541212.9443333,23.3,33.1,0,-112,-4116,36
1773541212.9647605,23.3,33.1,0,-112,-4116,36
1773541212.9852111,23.3,33.1,0,-88,-4108,48
1773541213.0055506,23.3,33.1,0,-88,-4108,48
1773541213.026006,23.3,33.1,0,-108,-4116,48
1773541213.046409,23.3,33.1,0,-108,-4116,48
1773541213.0669715,23.3,33.1,0,-108,-4116,48
1773541213.087544,23.3,33.1,0,-104,-4144,40
1773541213.108279,23.3,33.1,0,-104,-4144,40
1773541213.128775,23.3,33.1,0,-108,-4112,44
1773541213.1491327,23.3,33.1,0,-108,-4112,44
1773541213.1696694,23.3,33.1,0,-108,-4112,44
1773541213.190179,23.3,33.1,0,-104,-4112,52
1773541213.211019,23.3,33.1,0,-104,-4112,52
1773541213.2317429,23.3,33.1,0,-104,-4112,52
1773541213.2524078,23.3,33.1,0,-100,-4124,24
1773541213.2726512,23.3,33.1,0,-100,-4124,24
1773541213.2930884,23.3,33.1,0,-108,-4116,52
1773541213.313713,23.3,33.1,0,-108,-4116,52
1773541213.3345377,23.3,33.1,0,-108,-4116,52
1773541213.3549125,23.3,33.1,0,-120,-4132,48
1773541213.3752017,23.3,33.1,0,-120,-4132,48
1773541213.3959897,23.3,33.1,0,-116,-4116,52
1773541213.4168036,23.3,33.1,0,-116,-4116,52
1773541213.4379456,23.3,33.1,0,-116,-4116,52
1773541213.4584138,23.3,33.1,0,-96,-4112,36
1773541213.4788783,23.3,33.1,0,-96,-4112,36
1773541213.4993384,23.3,33.1,0,-112,-4116,52
1773541213.5200717,23.3,33.1,0,-112,-4116,52
1773541213.5406175,23.3,33.1,0,-112,-4116,52
1773541213.5611043,23.3,33.1,0,-116,-4124,52
1773541213.5818205,23.3,33.1,0,-116,-4124,52
1773541213.602544,23.3,33.1,0,-108,-4132,52
1773541213.6228058,23.3,33.1,0,-108,-4132,52
1773541213.6437132,23.3,33.1,0,-108,-4132,52
1773541213.6640966,23.3,33.1,0,-116,-4132,56
1773541213.6844678,23.3,33.1,0,-116,-4132,56
1773541213.7047677,23.3,33.1,0,-116,-4132,56
1773541213.7257845,23.3,33.1,0,-112,-4116,48
1773541213.746499,23.3,33.1,0,-112,-4116,48
1773541213.7668378,23.3,33.1,0,-100,-4108,40
1773541213.7875214,23.3,33.1,0,-100,-4108,40
1773541213.808249,23.3,33.1,0,-100,-4108,40
1773541213.8289301,23.3,33.1,0,-120,-4136,56
1773541213.8499148,23.3,33.1,0,-120,-4136,56
1773541213.870635,23.3,33.1,0,-108,-4116,48
1773541213.8911498,23.3,33.1,0,-108,-4116,48
1773541213.9117663,23.3,33.1,0,-108,-4116,48
1773541213.9326785,23.3,33.1,0,-104,-4116,56
1773541213.9530692,23.3,33.1,0,-104,-4116,56
1773541213.9733007,23.3,33.1,0,-104,-4116,56
1773541213.9938354,23.3,33.1,0,-112,-4132,36
1773541214.0144725,23.3,33.1,0,-112,-4132,36
1773541214.0363512,23.3,33.1,0,-100,-4092,44
1773541214.0572512,23.3,33.1,0,-100,-4092,44
1773541214.077917,23.3,33.1,0,-100,-4092,44
1773541214.0987432,23.3,33.1,0,-116,-4124,40
1773541214.1196296,23.3,33.1,0,-116,-4124,40
1773541214.1402988,23.3,33.1,0,-112,-4108,40
1773541214.161292,23.3,33.1,0,-112,-4108,40
1773541214.181839,23.3,33.1,0,-112,-4108,40
1773541214.2027154,23.3,33.1,0,-108,-4136,52
1773541214.2236233,23.3,33.1,0,-108,-4136,52
1773541214.244378,23.3,33.1,0,-112,-4112,44
1773541214.264979,23.3,33.1,0,-112,-4112,44
1773541214.2856128,23.3,33.1,0,-112,-4112,44
1773541214.3065562,23.3,33.1,0,-104,-4112,44
1773541214.3270922,23.3,33.1,0,-104,-4112,44
1773541214.3480995,23.3,33.1,0,-112,-4120,56
1773541214.3687444,23.3,33.1,0,-112,-4120,56
1773541214.3891783,23.3,33.1,0,-112,-4120,56
1773541214.4097495,23.3,33.1,0,-108,-4136,48
1773541214.4304879,23.3,33.1,0,-108,-4136,48
1773541214.4527376,23.3,33.1,0,-108,-4136,48
1773541214.4741175,23.3,32.6,0,-120,-4116,44
1773541214.494727,23.3,32.6,0,-120,-4116,44
1773541214.5151186,23.3,32.6,0,-120,-4116,44
1773541214.5359416,23.3,32.6,0,-112,-4136,32
1773541214.557141,23.3,32.6,0,-112,-4136,32
1773541214.5777617,23.3,32.6,0,-112,-4136,32
1773541214.5986366,23.3,32.6,0,-104,-4120,60
1773541214.619363,23.3,32.6,0,-104,-4120,60
1773541214.6403117,23.3,32.6,0,-120,-4104,40
1773541214.6608021,23.3,32.6,0,-120,-4104,40
1773541214.6814904,23.3,32.6,0,-120,-4104,40
1773541214.7019136,23.3,32.6,0,-104,-4120,44
1773541214.7231917,23.3,32.6,0,-104,-4120,44
1773541214.743637,23.3,32.6,0,-108,-4120,48
1773541214.7643812,23.3,32.6,0,-108,-4120,48
1773541214.7851677,23.3,32.6,0,-108,-4120,48
1773541214.806587,23.3,32.6,0,-108,-4108,44
1773541214.8270116,23.3,32.6,0,-108,-4108,44
1773541214.8476548,23.3,32.6,0,-108,-4116,44
1773541214.8683853,23.3,32.6,0,-108,-4116,44
1773541214.888987,23.3,32.6,0,-108,-4116,44
1773541214.9092233,23.3,32.6,0,-108,-4108,56
1773541214.9299371,23.3,32.6,0,-108,-4108,56
1773541214.9502516,23.3,32.6,0,-124,-4128,40
1773541214.970984,23.3,32.6,0,-124,-4128,40
1773541214.9913979,23.3,32.6,0,-124,-4128,40
1773541215.0119915,23.3,32.6,0,-104,-4116,64
1773541215.03225,23.3,32.6,0,-104,-4116,64
1773541215.0529566,23.3,32.6,0,-104,-4116,64
1773541215.0732572,23.3,32.6,0,-116,-4132,48
1773541215.093663,23.3,32.6,0,-116,-4132,48
1773541215.114246,23.3,32.6,0,-124,-4116,40
1773541215.1349177,23.3,32.6,0,-124,-4116,40
1773541215.155612,23.3,32.6,0,-124,-4116,40
1773541215.1765816,23.3,32.6,0,-116,-4132,48
1773541215.19688,23.3,32.6,0,-116,-4132,48
1773541215.2175746,23.3,32.6,0,-104,-4120,32
1773541215.2382188,23.3,32.6,0,-104,-4120,32
1773541215.2588944,23.3,32.6,0,-104,-4120,32
1773541215.2794137,23.3,32.6,0,-140,-4116,36
1773541215.2997646,23.3,32.6,0,-140,-4116,36
1773541215.321922,23.3,32.6,0,-104,-4108,44
1773541215.342208,23.3,32.6,0,-104,-4108,44
1773541215.3625534,23.3,32.6,0,-104,-4108,44
1773541215.385274,23.3,32.6,0,-120,-4144,68
1773541215.406313,23.3,32.6,0,-120,-4144,68
1773541215.42703,23.3,32.6,0,-100,-4112,48
1773541215.4476602,23.3,32.6,0,-100,-4112,48
1773541215.4682662,23.3,32.6,0,-100,-4112,48
1773541215.4889643,23.3,32.6,0,-116,-4120,44
1773541215.509557,23.3,32.6,0,-116,-4120,44
1773541215.5303662,23.3,32.6,0,-116,-4120,44
1773541215.5512333,23.3,32.6,0,-116,-4120,52
1773541215.572049,23.3,32.6,0,-116,-4120,52
1773541215.5927534,23.3,32.6,0,-124,-4112,56
1773541215.613442,23.3,32.6,0,-124,-4112,56
1773541215.6340127,23.3,32.6,0,-124,-4112,56
1773541215.6546762,23.3,32.6,0,-96,-4136,40
1773541215.675263,23.3,32.6,0,-96,-4136,40
1773541215.6959143,23.3,32.6,0,-96,-4132,52
1773541215.7165067,23.3,32.6,0,-96,-4132,52
1773541215.738544,23.3,32.6,0,-96,-4132,52
1773541215.7589607,23.3,32.6,0,-116,-4128,52
1773541215.7793891,23.3,32.6,0,-116,-4128,52
1773541215.8000238,23.3,32.6,0,-104,-4140,52
1773541215.821194,23.3,32.6,0,-104,-4140,52
1773541215.8417828,23.3,32.6,0,-104,-4140,52
1773541215.8625956,23.3,32.6,0,-96,-4124,48
1773541215.8840935,23.3,32.6,0,-96,-4124,48
1773541215.9052222,23.3,32.6,0,-104,-4124,60
1773541215.925914,23.3,32.6,0,-104,-4124,60
1773541215.946312,23.3,32.6,0,-104,-4124,60
1773541215.9668496,23.3,32.6,0,-120,-4116,48
1773541215.9881175,23.3,32.6,0,-120,-4116,48
1773541216.008875,23.3,32.6,0,-108,-4124,28
1773541216.02939,23.3,32.6,0,-108,-4124,28
1773541216.050023,23.3,32.6,0,-108,-4124,28
1773541216.0704596,23.3,32.6,0,-128,-4132,56
1773541216.0911195,23.3,32.6,0,-128,-4132,56
1773541216.111653,23.3,32.6,0,-128,-4132,56
1773541216.1326196,23.3,32.6,0,-104,-4132,48
1773541216.153416,23.3,32.6,0,-104,-4132,48
1773541216.1739364,23.3,32.6,0,-92,-4116,52
1773541216.194577,23.3,32.6,0,-92,-4116,52
1773541216.215026,23.3,32.6,0,-92,-4116,52
1773541216.235717,23.3,32.6,0,-104,-4132,40
1773541216.2561247,23.3,32.6,0,-104,-4132,40
1773541216.277072,23.3,32.6,0,-116,-4132,44
1773541216.297851,23.3,32.6,0,-116,-4132,44
1773541216.3185513,23.3,32.6,0,-116,-4132,44
1773541216.3388875,23.3,32.6,0,-100,-4120,36
1773541216.3594716,23.3,32.6,0,-100,-4120,36
1773541216.3799882,23.3,32.6,0,-104,-4128,44
1773541216.4014664,23.3,32.6,0,-104,-4128,44
1773541216.4225054,23.3,32.6,0,-104,-4128,44
1773541216.4431372,23.3,32.6,0,-116,-4124,44
1773541216.4638565,23.3,32.6,0,-116,-4124,44
1773541216.4847813,23.3,32.6,0,-116,-4124,44
1773541216.505413,23.3,32.6,0,-116,-4124,44
1773541216.525999,23.3,32.2,0,-124,-4108,48
1773541216.546843,23.3,32.2,0,-124,-4108,48
1773541216.567506,23.3,32.2,0,-96,-4124,36
1773541216.5899765,23.3,32.2,0,-96,-4124,36
1773541216.610487,23.3,32.2,0,-96,-4124,36
1773541216.6310184,23.3,32.2,0,-112,-4116,48
1773541216.6516166,23.3,32.2,0,-112,-4116,48
1773541216.6724966,23.3,32.2,0,-116,-4116,52
1773541216.6929364,23.3,32.2,0,-116,-4116,52
1773541216.7136579,23.3,32.2,0,-116,-4116,52
1773541216.7344806,23.3,32.2,0,-96,-4104,28
1773541216.7548516,23.3,32.2,0,-96,-4104,28
1773541216.7754993,23.3,32.2,0,-96,-4120,40
1773541216.7962277,23.3,32.2,0,-96,-4120,40
1773541216.8176692,23.3,32.2,0,-96,-4120,40
1773541216.8379927,23.3,32.2,0,-108,-4124,32
1773541216.8607824,23.3,32.2,0,-108,-4124,32
1773541216.8818872,23.3,32.2,0,-104,-4128,40
1773541216.902562,23.3,32.2,0,-104,-4128,40
1773541216.9232807,23.3,32.2,0,-104,-4128,40
1773541216.9440114,23.3,32.2,0,-92,-4120,32
1773541216.964408,23.3,32.2,0,-92,-4120,32
1773541216.9848533,23.3,32.2,0,-92,-4120,32
1773541217.0053804,23.3,32.2,0,-100,-4128,36
1773541217.0260122,23.3,32.2,0,-100,-4128,36
1773541217.0466545,23.3,32.2,0,-104,-4132,32
1773541217.0672395,23.3,32.2,0,-104,-4132,32
1773541217.0890756,23.3,32.2,0,-104,-4132,32
1773541217.1100717,23.3,32.2,0,-120,-4112,40
1773541217.1308713,23.3,32.2,0,-120,-4112,40
1773541217.1512907,23.3,32.2,0,-116,-4120,48
1773541217.1726575,23.3,32.2,0,-116,-4120,48
1773541217.1932478,23.3,32.2,0,-116,-4120,48
1773541217.2137737,23.3,32.2,0,-100,-4112,28
1773541217.2340686,23.3,32.2,0,-100,-4112,28
1773541217.254397,23.3,32.2,0,-104,-4116,32
1773541217.2749622,23.3,32.2,0,-104,-4116,32
1773541217.2956712,23.3,32.2,0,-104,-4116,32
1773541217.3168683,23.3,32.2,0,-108,-4136,52
1773541217.3383482,23.3,32.2,0,-108,-4136,52
1773541217.3591022,23.3,32.2,0,-124,-4156,52
1773541217.3797662,23.3,32.2,0,-124,-4156,52
1773541217.40022,23.3,32.2,0,-124,-4156,52
1773541217.4204986,23.3,32.2,0,-112,-4128,44
1773541217.441205,23.3,32.2,0,-112,-4128,44
1773541217.461471,23.3,32.2,0,-116,-4128,32
1773541217.4818113,23.3,32.2,0,-116,-4128,32
1773541217.5022795,23.3,32.2,0,-116,-4128,32
1773541217.5228987,23.3,32.2,0,-92,-4124,56
1773541217.5437655,23.3,32.2,0,-92,-4124,56
1773541217.5645053,23.3,32.2,0,-92,-4124,56
1773541217.5848844,23.3,32.2,0,-112,-4128,44
1773541217.6058738,23.3,32.2,0,-112,-4128,44
1773541217.6265125,23.3,32.2,0,-108,-4116,36
1773541217.6470585,23.3,32.2,0,-108,-4116,36
1773541217.6678126,23.3,32.2,0,-108,-4116,36
1773541217.689518,23.3,32.2,0,-104,-4120,28
1773541217.7100592,23.3,32.2,0,-104,-4120,28
1773541217.730668,23.3,32.2,0,-108,-4124,36
1773541217.7514136,23.3,32.2,0,-108,-4124,36
1773541217.7718978,23.3,32.2,0,-108,-4124,36
1773541217.7926967,23.3,32.2,0,-108,-4108,64
1773541217.813316,23.3,32.2,0,-108,-4108,64
1773541217.8340619,23.3,32.2,0,-124,-4108,44
1773541217.854715,23.3,32.2,0,-124,-4108,44
1773541217.8752692,23.3,32.2,0,-124,-4108,44
1773541217.8959546,23.3,32.2,0,-100,-4120,36
1773541217.9166772,23.3,32.2,0,-100,-4120,36
1773541217.9371529,23.3,32.2,0,-108,-4120,44
1773541217.957692,23.3,32.2,0,-108,-4120,44
1773541217.9780672,23.3,32.2,0,-108,-4120,44
1773541217.9988859,23.3,32.2,0,-104,-4120,44
1773541218.0194907,23.3,32.2,0,-104,-4120,44
1773541218.0401378,23.3,32.2,0,-104,-4120,44
1773541218.060538,23.3,32.2,0,-124,-4128,52
1773541218.0807705,23.3,32.2,0,-124,-4128,52
1773541218.1021419,23.3,32.2,0,-116,-4116,40
1773541218.1226797,23.3,32.2,0,-116,-4116,40
1773541218.1436446,23.3,32.2,0,-116,-4116,40
1773541218.1642437,23.3,32.2,0,-100,-4124,56
1773541218.184773,23.3,32.2,0,-100,-4124,56
1773541218.2059183,23.3,32.2,0,-100,-4136,44
1773541218.2265449,23.3,32.2,0,-100,-4136,44
1773541218.247357,23.3,32.2,0,-100,-4136,44
1773541218.2676845,23.3,32.2,0,-116,-4108,44
1773541218.2884328,23.3,32.2,0,-116,-4108,44
1773541218.309214,23.3,32.2,0,-112,-4128,32
1773541218.3295069,23.3,32.2,0,-112,-4128,32
1773541218.349683,23.3,32.2,0,-112,-4128,32
1773541218.3713706,23.3,32.2,0,-104,-4108,28
1773541218.3917913,23.3,32.2,0,-104,-4108,28
1773541218.4121704,23.3,32.2,0,-104,-4108,28
1773541218.4338396,23.3,32.2,0,-108,-4112,24
1773541218.4567726,23.3,32.2,0,-108,-4112,24
1773541218.4771426,23.3,32.2,0,-120,-4120,44
1773541218.4977922,23.3,32.2,0,-120,-4120,44
1773541218.5184371,23.3,32.2,0,-120,-4120,44
1773541218.5389569,23.3,32.2,0,-120,-4120,44
1773541218.559292,23.3,31.9,0,-116,-4120,48
1773541218.5795367,23.3,31.9,0,-116,-4120,48
1773541218.6004198,23.3,31.9,0,-104,-4116,36
1773541218.6212096,23.3,31.9,0,-104,-4116,36
1773541218.6418347,23.3,31.9,0,-104,-4116,36
1773541218.6625214,23.3,31.9,0,-104,-4116,48
1773541218.6829927,23.3,31.9,0,-104,-4116,48
1773541218.7039862,23.3,31.9,0,-116,-4132,64
1773541218.724471,23.3,31.9,0,-116,-4132,64
1773541218.7452188,23.3,31.9,0,-116,-4132,64
1773541218.7655792,23.3,31.9,0,-100,-4120,40
1773541218.786634,23.3,31.9,0,-100,-4120,40
1773541218.8070564,23.3,31.9,0,-100,-4120,40
1773541218.8277693,23.3,31.9,0,-108,-4120,44
1773541218.848449,23.3,31.9,0,-108,-4120,44
1773541218.869247,23.3,31.9,0,-100,-4104,56
1773541218.890296,23.3,31.9,0,-100,-4104,56
1773541218.9108784,23.3,31.9,0,-100,-4104,56
1773541218.9316099,23.3,31.9,0,-112,-4116,48
1773541218.9521348,23.3,31.9,0,-112,-4116,48
1773541218.9729917,23.3,31.9,0,-120,-4128,56
1773541218.9938262,23.3,31.9,0,-120,-4128,56
1773541219.0142574,23.3,31.9,0,-120,-4128,56
1773541219.0349414,23.3,31.9,0,-104,-4116,40
1773541219.0557928,23.3,31.9,0,-104,-4116,40
1773541219.0764182,23.3,31.9,0,-108,-4128,36
1773541219.0967867,23.3,31.9,0,-108,-4128,36
1773541219.1176076,23.3,31.9,0,-108,-4128,36
1773541219.138006,23.3,31.9,0,-112,-4112,56
1773541219.1584458,23.3,31.9,0,-112,-4112,56
1773541219.1791291,23.3,31.9,0,-104,-4112,60
1773541219.1993582,23.3,31.9,0,-104,-4112,60
1773541219.2198822,23.3,31.9,0,-104,-4112,60
1773541219.240421,23.3,31.9,0,-112,-3964,12
1773541219.261191,23.3,31.9,0,-112,-3964,12
1773541219.2818081,23.3,31.9,0,-112,-3964,12
1773541219.3024058,23.3,31.9,0,-104,-3988,60
1773541219.3230085,23.3,31.9,0,-104,-3988,60
1773541219.3437028,23.3,31.9,0,-76,-4228,52
1773541219.364323,23.3,31.9,0,-76,-4228,52
1773541219.3848033,23.3,31.9,0,-76,-4228,52
1773541219.405407,23.3,31.9,0,-144,-4288,60
1773541219.4262614,23.3,31.9,0,-144,-4288,60
1773541219.4470246,23.3,31.9,1,-96,-4036,116
1773541219.4673269,23.3,31.9,1,-96,-4036,116
1773541219.4874892,23.3,31.9,1,-96,-4036,116
1773541219.508125,23.3,31.9,0,-120,-3984,64
1773541219.5291417,23.3,31.9,0,-120,-3984,64
1773541219.5499804,23.3,31.9,0,-156,-4352,4
1773541219.570237,23.3,31.9,0,-156,-4352,4
1773541219.591497,23.3,31.9,0,-156,-4352,4
1773541219.6122835,23.3,31.9,0,-64,-3988,28
1773541219.6333525,23.3,31.9,0,-64,-3988,28
1773541219.653955,23.3,31.9,0,-64,-3988,28
1773541219.6748168,23.3,31.9,1,-400,-3808,-16
1773541219.6957633,23.3,31.9,1,-400,-3808,-16
1773541219.7177966,23.3,31.9,1,-72,-4148,24
1773541219.7386725,23.3,31.9,1,-72,-4148,24
1773541219.759484,23.3,31.9,1,-72,-4148,24
1773541219.7804646,23.3,31.9,0,0,-3780,20
1773541219.801248,23.3,31.9,0,0,-3780,20
1773541219.8217187,23.3,31.9,0,-48,-3676,24
1773541219.8425562,23.3,31.9,0,-48,-3676,24
1773541219.8633416,23.3,31.9,0,-48,-3676,24
1773541219.8837807,23.3,31.9,1,-156,-4756,-136
1773541219.9044087,23.3,31.9,1,-156,-4756,-136
1773541219.9252021,23.3,31.9,0,-172,-4624,124
1773541219.9463184,23.3,31.9,0,-172,-4624,124
1773541219.9670365,23.3,31.9,0,-172,-4624,124
1773541219.987506,23.3,31.9,0,-120,-4208,20
1773541220.0082915,23.3,31.9,0,-120,-4208,20
1773541220.029304,23.3,31.9,1,-72,-4916,-156
1773541220.0507166,23.3,31.9,1,-72,-4916,-156
1773541220.0719457,23.3,31.9,1,-72,-4916,-156
1773541220.092852,23.3,31.9,0,-204,-4496,-24
1773541220.113568,23.3,31.9,0,-204,-4496,-24
1773541220.1341925,23.3,31.9,1,-128,-4484,60
1773541220.1547236,23.3,31.9,1,-128,-4484,60
1773541220.1750531,23.3,31.9,1,-128,-4484,60
1773541220.1959333,23.3,31.9,0,-184,-4160,-132
1773541220.2165253,23.3,31.9,0,-184,-4160,-132
1773541220.2386532,23.3,31.9,1,-252,-4316,332
1773541220.2590652,23.3,31.9,1,-252,-4316,332
1773541220.2798305,23.3,31.9,1,-252,-4316,332
1773541220.3004491,23.3,31.9,1,-76,-3608,48
1773541220.320838,23.3,31.9,1,-76,-3608,48
1773541220.3411736,23.3,31.9,1,-76,-3608,48
1773541220.361858,23.3,31.9,0,-92,-3732,-52
1773541220.3824866,23.3,31.9,0,-92,-3732,-52
1773541220.40307,23.3,31.9,1,-116,-3916,-104
1773541220.4261396,23.3,31.9,1,-116,-3916,-104
1773541220.446992,23.3,31.9,1,-116,-3916,-104
1773541220.4682355,23.3,31.9,0,-204,-4448,-8
1773541220.488816,23.3,31.9,0,-204,-4448,-8
1773541220.509425,23.3,31.9,0,-100,-4224,36
1773541220.5299253,23.3,31.9,0,-100,-4224,36
1773541220.5503926,23.3,31.9,0,-100,-4224,36
1773541220.5708976,23.3,31.9,0,-100,-4224,36
1773541220.5917108,23.2,31.6,0,-124,-3644,24
1773541220.6121366,23.2,31.6,0,-124,-3644,24
1773541220.6325336,23.2,31.6,0,-192,-4132,60
1773541220.6531155,23.2,31.6,0,-192,-4132,60
1773541220.6735568,23.2,31.6,0,-192,-4132,60
1773541220.6943111,23.2,31.6,0,-80,-4032,28
1773541220.7150772,23.2,31.6,0,-80,-4032,28
1773541220.735672,23.2,31.6,0,-80,-4032,28
1773541220.756217,23.2,31.6,1,-104,-3900,236
1773541220.7768621,23.2,31.6,1,-104,-3900,236
1773541220.7971988,23.2,31.6,0,-96,-4276,-52
1773541220.81773,23.2,31.6,0,-96,-4276,-52
1773541220.8387728,23.2,31.6,0,-96,-4276,-52
1773541220.8593884,23.2,31.6,0,-132,-4556,28
1773541220.8804345,23.2,31.6,0,-132,-4556,28
1773541220.9011378,23.2,31.6,1,-188,-4708,16
1773541220.9217997,23.2,31.6,1,-188,-4708,16
1773541220.942126,23.2,31.6,1,-188,-4708,16
1773541220.9627852,23.2,31.6,1,-148,-4264,-76
1773541220.983251,23.2,31.6,1,-148,-4264,-76
1773541221.0039027,23.2,31.6,1,-352,-4892,-88
1773541221.0245538,23.2,31.6,1,-352,-4892,-88
1773541221.0454423,23.2,31.6,1,-352,-4892,-88
1773541221.0660453,23.2,31.6,1,-132,-4320,44
1773541221.0867264,23.2,31.6,1,-132,-4320,44
1773541221.10707,23.2,31.6,1,-132,-4320,44
1773541221.1274796,23.2,31.6,0,-8,-4380,-108
1773541221.148188,23.2,31.6,0,-8,-4380,-108
1773541221.1689117,23.2,31.6,0,-96,-3816,156
1773541221.189898,23.2,31.6,0,-96,-3816,156
1773541221.2104971,23.2,31.6,0,-96,-3816,156
1773541221.2312088,23.2,31.6,1,-92,-4456,-40
1773541221.2516844,23.2,31.6,1,-92,-4456,-40
1773541221.2720122,23.2,31.6,0,-144,-4220,128
1773541221.2927263,23.2,31.6,0,-144,-4220,128
1773541221.3131402,23.2,31.6,0,-144,-4220,128
1773541221.3335476,23.2,31.6,1,-136,-4808,-88
1773541221.3538702,23.2,31.6,1,-136,-4808,-88
1773541221.3744867,23.2,31.6,0,-252,-4796,72
1773541221.3951454,23.2,31.6,0,-252,-4796,72
1773541221.4159663,23.2,31.6,0,-252,-4796,72
1773541221.4364064,23.2,31.6,0,-84,-4124,64
1773541221.4569442,23.2,31.6,0,-84,-4124,64
1773541221.477331,23.2,31.6,0,-84,-4124,64
1773541221.4980338,23.2,31.6,0,528,-2788,184
1773541221.518556,23.2,31.6,0,528,-2788,184
1773541221.539381,23.2,31.6,0,-52,-4084,-4
1773541221.560123,23.2,31.6,0,-52,-4084,-4
1773541221.5808005,23.2,31.6,0,-52,-4084,-4
1773541221.6012137,23.2,31.6,0,64,-3508,76
1773541221.6224864,23.2,31.6,0,64,-3508,76
1773541221.6430273,23.2,31.6,0,-52,-3540,104
1773541221.6640055,23.2,31.6,0,-52,-3540,104
1773541221.6845744,23.2,31.6,0,-52,-3540,104
1773541221.7052941,23.2,31.6,0,-432,-5628,-448
1773541221.7257583,23.2,31.6,0,-432,-5628,-448
1773541221.7461202,23.2,31.6,1,-220,-4584,92
1773541221.766646,23.2,31.6,1,-220,-4584,92
1773541221.7869313,23.2,31.6,1,-220,-4584,92
1773541221.807639,23.2,31.6,0,-64,-4120,-80
1773541221.8282688,23.2,31.6,0,-64,-4120,-80
1773541221.8486722,23.2,31.6,0,-64,-4120,-80
1773541221.8689284,23.2,31.6,0,-120,-4120,28
1773541221.8896172,23.2,31.6,0,-120,-4120,28
1773541221.9102445,23.2,31.6,0,-36,-4840,188
1773541221.930557,23.2,31.6,0,-36,-4840,188
1773541221.9510653,23.2,31.6,0,-36,-4840,188
1773541221.9721086,23.2,31.6,0,-80,-3944,56
1773541221.9929974,23.2,31.6,0,-80,-3944,56
1773541222.0137007,23.2,31.6,0,-228,-4208,184
1773541222.0341084,23.2,31.6,0,-228,-4208,184
1773541222.055477,23.2,31.6,0,-228,-4208,184
1773541222.0759287,23.2,31.6,0,-168,-4520,24
1773541222.0965216,23.2,31.6,0,-168,-4520,24
1773541222.1174195,23.2,31.6,1,-68,-3668,168
1773541222.1379998,23.2,31.6,1,-68,-3668,168
1773541222.1584353,23.2,31.6,1,-68,-3668,168
1773541222.1789916,23.2,31.6,0,-48,-3792,64
1773541222.1995106,23.2,31.6,0,-48,-3792,64
1773541222.2202508,23.2,31.6,1,-144,-4268,-8
1773541222.2409205,23.2,31.6,1,-144,-4268,-8
1773541222.261295,23.2,31.6,1,-144,-4268,-8
1773541222.2816334,23.2,31.6,0,-96,-4048,-8
1773541222.3023276,23.2,31.6,0,-96,-4048,-8
1773541222.3226638,23.2,31.6,0,-96,-4048,-8
1773541222.3433592,23.2,31.6,1,-64,-3788,200
1773541222.3640158,23.2,31.6,1,-64,-3788,200
1773541222.3854134,23.2,31.6,1,-64,-3748,-36
1773541222.4060767,23.2,31.6,1,-64,-3748,-36
1773541222.4265928,23.2,31.6,1,-64,-3748,-36
1773541222.4475718,23.2,31.6,0,-52,-3976,48
1773541222.4682565,23.2,31.6,0,-52,-3976,48
1773541222.4895313,23.2,31.6,0,-4,-4564,24
1773541222.5103362,23.2,31.6,0,-4,-4564,24
1773541222.5310366,23.2,31.6,0,-4,-4564,24
1773541222.5524566,23.2,31.6,0,-124,-4144,164
1773541222.5732388,23.2,31.6,0,-124,-4144,164
1773541222.593486,23.2,31.6,0,-124,-4144,164
1773541222.6141095,23.2,31.6,0,-124,-4144,164
1773541222.6346147,23.2,31.3,0,-120,-4124,128
1773541222.65556,23.2,31.3,0,-120,-4124,128
1773541222.6760914,23.2,31.3,0,-160,-3808,156
1773541222.696394,23.2,31.3,0,-160,-3808,156
1773541222.7168674,23.2,31.3,0,-160,-3808,156
1773541222.7373714,23.2,31.3,0,-56,-3980,48
1773541222.7579815,23.2,31.3,0,-56,-3980,48
1773541222.7785985,23.2,31.3,1,-112,-4076,152
1773541222.7993124,23.2,31.3,1,-112,-4076,152
1773541222.8196826,23.2,31.3,1,-112,-4076,152
1773541222.8404746,23.2,31.3,0,-88,-3984,36
1773541222.8609629,23.2,31.3,0,-88,-3984,36
1773541222.8813934,23.2,31.3,0,0,-4840,132
1773541222.9021282,23.2,31.3,0,0,-4840,132
1773541222.9235158,23.2,31.3,0,0,-4840,132
1773541222.9442983,23.2,31.3,0,-136,-4184,108
1773541222.965016,23.2,31.3,0,-136,-4184,108
1773541222.9862032,23.2,31.3,1,-92,-4052,64
1773541223.007288,23.2,31.3,1,-92,-4052,64
1773541223.0275354,23.2,31.3,1,-92,-4052,64
1773541223.0482075,23.2,31.3,0,-176,-4208,68
1773541223.0685318,23.2,31.3,0,-176,-4208,68
1773541223.0891533,23.2,31.3,0,-176,-4208,68
1773541223.1097953,23.2,31.3,1,-220,-5036,-88
1773541223.1302164,23.2,31.3,1,-220,-5036,-88
1773541223.150642,23.2,31.3,1,-208,-4544,132
1773541223.1709435,23.2,31.3,1,-208,-4544,132
1773541223.1915154,23.2,31.3,1,-208,-4544,132
1773541223.2119615,23.2,31.3,0,-148,-4324,-28
1773541223.233216,23.2,31.3,0,-148,-4324,-28
1773541223.2537448,23.2,31.3,1,-144,-4180,248
1773541223.2742877,23.2,31.3,1,-144,-4180,248
1773541223.294751,23.2,31.3,1,-144,-4180,248
1773541223.315474,23.2,31.3,1,-96,-4140,24
1773541223.336151,23.2,31.3,1,-96,-4140,24
1773541223.3563375,23.2,31.3,0,-256,-4688,-272
1773541223.3768885,23.2,31.3,0,-256,-4688,-272
1773541223.3976364,23.2,31.3,0,-256,-4688,-272
1773541223.4203398,23.2,31.3,0,-112,-4120,48
1773541223.4407444,23.2,31.3,0,-112,-4120,48
1773541223.4614596,23.2,31.3,0,0,-4272,-296
1773541223.4816535,23.2,31.3,0,0,-4272,-296
1773541223.5020514,23.2,31.3,0,0,-4272,-296
1773541223.5228155,23.2,31.3,0,-68,-3884,96
1773541223.5434363,23.2,31.3,0,-68,-3884,96
1773541223.563806,23.2,31.3,0,-68,-3884,96
1773541223.584141,23.2,31.3,1,-280,-4716,-40
1773541223.604487,23.2,31.3,1,-280,-4716,-40
1773541223.625187,23.2,31.3,0,-164,-4624,48
1773541223.6459212,23.2,31.3,0,-164,-4624,48
1773541223.667293,23.2,31.3,0,-164,-4624,48
1773541223.6880481,23.2,31.3,1,-108,-4196,-76
1773541223.7088993,23.2,31.3,1,-108,-4196,-76
1773541223.7297804,23.2,31.3,0,-40,-3908,44
1773541223.7508202,23.2,31.3,0,-40,-3908,44
1773541223.7717934,23.2,31.3,0,-40,-3908,44
1773541223.7925034,23.2,31.3,0,-192,-4220,116
1773541223.8133657,23.2,31.3,0,-192,-4220,116
1773541223.8339586,23.2,31.3,0,-64,-4180,28
1773541223.85463,23.2,31.3,0,-64,-4180,28
1773541223.8750784,23.2,31.3,0,-64,-4180,28
1773541223.895941,23.2,31.3,0,-80,-3760,152
1773541223.9172666,23.2,31.3,0,-80,-3760,152
1773541223.937547,23.2,31.3,1,-68,-3960,80
1773541223.9583526,23.2,31.3,1,-68,-3960,80
1773541223.9787652,23.2,31.3,1,-68,-3960,80
1773541223.9996939,23.2,31.3,0,-68,-4120,80
1773541224.020469,23.2,31.3,0,-68,-4120,80
1773541224.0412111,23.2,31.3,0,-68,-4120,80
1773541224.0618765,23.2,31.3,0,-96,-4020,40
1773541224.0826898,23.2,31.3,0,-96,-4020,40
1773541224.1037526,23.2,31.3,1,-60,-4200,80
1773541224.12448,23.2,31.3,1,-60,-4200,80
1773541224.144942,23.2,31.3,1,-60,-4200,80
1773541224.1652482,23.2,31.3,0,-280,-4492,-8
1773541224.186109,23.2,31.3,0,-280,-4492,-8
1773541224.2063925,23.2,31.3,0,-136,-4384,64
1773541224.226965,23.2,31.3,0,-136,-4384,64
1773541224.2473366,23.2,31.3,0,-136,-4384,64
1773541224.2681198,23.2,31.3,1,40,-3588,196
1773541224.2885005,23.2,31.3,1,40,-3588,196
1773541224.3088577,23.2,31.3,0,-84,-3860,76
1773541224.329371,23.2,31.3,0,-84,-3860,76
1773541224.3497748,23.2,31.3,0,-84,-3860,76
1773541224.3704364,23.2,31.3,0,-80,-3724,152
1773541224.3907423,23.2,31.3,0,-80,-3724,152
1773541224.411477,23.2,31.3,0,-80,-3724,152
1773541224.432377,23.2,31.3,0,-60,-3712,16
1773541224.4530892,23.2,31.3,0,-60,-3712,16
1773541224.4736168,23.2,31.3,1,-56,-4708,88
1773541224.4942114,23.2,31.3,1,-56,-4708,88
1773541224.5149195,23.2,31.3,1,-56,-4708,88
1773541224.5355403,23.2,31.3,0,-164,-4336,120
1773541224.5561175,23.2,31.3,0,-164,-4336,120
1773541224.5768929,23.2,31.3,0,-60,-4140,56
1773541224.5974994,23.2,31.3,0,-60,-4140,56
1773541224.6180043,23.2,31.3,0,-60,-4140,56
1773541224.6387405,23.2,31.3,0,-60,-4140,56
1773541224.6595469,23.2,31.0,0,60,-3484,396
1773541224.6799572,23.2,31.0,0,60,-3484,396
1773541224.7004573,23.2,31.0,0,60,-3484,396
1773541224.7216809,23.2,31.0,0,-164,-4056,28
1773541224.7421095,23.2,31.0,0,-164,-4056,28
1773541224.7626386,23.2,31.0,0,-212,-4216,-20
1773541224.783433,23.2,31.0,0,-212,-4216,-20
1773541224.803877,23.2,31.0,0,-212,-4216,-20
1773541224.8246047,23.2,31.0,0,-176,-4268,72
1773541224.8453357,23.2,31.0,0,-176,-4268,72
1773541224.865855,23.2,31.0,1,-48,-3424,16
1773541224.8866699,23.2,31.0,1,-48,-3424,16
1773541224.9073024,23.2,31.0,1,-48,-3424,16
1773541224.927733,23.2,31.0,0,-64,-3624,76
1773541224.948543,23.2,31.0,0,-64,-3624,76
1773541224.9691026,23.2,31.0,1,-68,-3728,0
1773541224.9895651,23.2,31.0,1,-68,-3728,0
1773541225.0103345,23.2,31.0,1,-68,-3728,0
1773541225.0305736,23.2,31.0,0,-56,-3716,48
1773541225.0512474,23.2,31.0,0,-56,-3716,48
1773541225.073241,23.2,31.0,1,-168,-4600,-132
1773541225.09385,23.2,31.0,1,-168,-4600,-132
1773541225.1146195,23.2,31.0,1,-168,-4600,-132
1773541225.1356645,23.2,31.0,1,-240,-5016,88
1773541225.1561313,23.2,31.0,1,-240,-5016,88
1773541225.1765366,23.2,31.0,1,-240,-5016,88
1773541225.1972237,23.2,31.0,0,-156,-4336,48
1773541225.2177489,23.2,31.0,0,-156,-4336,48
1773541225.2384343,23.2,31.0,0,-104,-3756,-40
1773541225.258994,23.2,31.0,0,-104,-3756,-40
1773541225.2795491,23.2,31.0,0,-104,-3756,-40
1773541225.2999465,23.2,31.0,0,-244,-4820,-24
1773541225.3207448,23.2,31.0,0,-244,-4820,-24
1773541225.3412466,23.2,31.0,1,212,-2940,88
1773541225.361823,23.2,31.0,1,212,-2940,88
1773541225.3822417,23.2,31.0,1,212,-2940,88
1773541225.4027991,23.2,31.0,0,-80,-3656,84
1773541225.4237165,23.2,31.0,0,-80,-3656,84
1773541225.4445026,23.2,31.0,1,276,-2848,252
1773541225.465317,23.2,31.0,1,276,-2848,252
1773541225.4857016,23.2,31.0,1,276,-2848,252
1773541225.5064712,23.2,31.0,0,-12,-3612,-28
1773541225.5271192,23.2,31.0,0,-12,-3612,-28
1773541225.5475168,23.2,31.0,0,-12,-3612,-28
1773541225.5688758,23.2,31.0,0,-200,-3840,96
1773541225.589497,23.2,31.0,0,-200,-3840,96
1773541225.6098843,23.2,31.0,0,-40,-4064,32
1773541225.6302276,23.2,31.0,0,-40,-4064,32
1773541225.6508064,23.2,31.0,0,-40,-4064,32
1773541225.6710403,23.2,31.0,0,-124,-4124,28
1773541225.6914494,23.2,31.0,0,-124,-4124,28
1773541225.7122703,23.2,31.0,0,-96,-3800,116
1773541225.7334108,23.2,31.0,0,-96,-3800,116
1773541225.754115,23.2,31.0,0,-96,-3800,116
1773541225.774861,23.2,31.0,0,-216,-4316,36
1773541225.795417,23.2,31.0,0,-216,-4316,36
1773541225.8158083,23.2,31.0,0,-96,-4296,64
1773541225.836253,23.2,31.0,0,-96,-4296,64
1773541225.8572946,23.2,31.0,0,-96,-4296,64
1773541225.8780358,23.2,31.0,1,-332,-5472,-952
1773541225.8985431,23.2,31.0,1,-332,-5472,-952
1773541225.9193828,23.2,31.0,1,-192,-4588,144
1773541225.939906,23.2,31.0,1,-192,-4588,144
1773541225.9605212,23.2,31.0,1,-192,-4588,144
1773541225.9809132,23.2,31.0,0,-120,-3832,-36
1773541226.0012875,23.2,31.0,0,-120,-3832,-36
1773541226.0216892,23.2,31.0,0,-120,-3832,-36
1773541226.0421343,23.2,31.0,1,-124,-4016,36
1773541226.0626454,23.2,31.0,1,-124,-4016,36
1773541226.0839293,23.2,31.0,0,-120,-3780,80
1773541226.1046588,23.2,31.0,0,-120,-3780,80
1773541226.125044,23.2,31.0,0,-120,-3780,80
1773541226.1459846,23.2,31.0,0,-192,-4356,-28
1773541226.167329,23.2,31.0,0,-192,-4356,-28
1773541226.1879668,23.2,31.0,1,-64,-3420,20
1773541226.208313,23.2,31.0,1,-64,-3420,20
1773541226.2286801,23.2,31.0,1,-64,-3420,20
1773541226.248947,23.2,31.0,0,-76,-3848,56
1773541226.2692041,23.2,31.0,0,-76,-3848,56
1773541226.289713,23.2,31.0,0,-156,-4388,-56
1773541226.3106022,23.2,31.0,0,-156,-4388,-56
1773541226.3311386,23.2,31.0,0,-156,-4388,-56
1773541226.351785,23.2,31.0,0,12,-4020,-4
1773541226.3725626,23.2,31.0,0,12,-4020,-4
1773541226.3928797,23.2,31.0,0,12,-4020,-4
1773541226.413231,23.2,31.0,0,-132,-4084,84
1773541226.4478683,23.2,31.0,0,-132,-4084,84
1773541226.468534,23.2,31.0,1,20,-3000,68
1773541226.4891267,23.2,31.0,1,20,-3000,68
1773541226.5097783,23.2,31.0,0,-80,-3968,8
1773541226.5301898,23.2,31.0,0,-80,-3968,8
1773541226.5507326,23.2,31.0,0,-80,-3968,8
1773541226.5711665,23.2,31.0,0,-156,-4108,-40
1773541226.5916414,23.2,31.0,0,-156,-4108,-40
1773541226.6124237,23.2,31.0,0,-64,-4000,72
1773541226.633135,23.2,31.0,0,-64,-4000,72
1773541226.6539557,23.2,31.0,0,-64,-4000,72
1773541226.674445,23.2,31.0,0,-64,-4000,72
1773541226.6950214,23.2,30.8,1,-180,-4204,-64
1773541226.7158906,23.2,30.8,1,-180,-4204,-64
1773541226.7365513,23.2,30.8,1,-96,-4196,-28
1773541226.7570455,23.2,30.8,1,-96,-4196,-28
1773541226.7774765,23.2,30.8,1,-96,-4196,-28
1773541226.7980235,23.2,30.8,0,-136,-4116,48
1773541226.818197,23.2,30.8,0,-136,-4116,48
1773541226.8387856,23.2,30.8,0,-136,-4116,48
1773541226.859634,23.2,30.8,0,-592,-5436,-324
1773541226.8803637,23.2,30.8,0,-592,-5436,-324
1773541226.9007187,23.2,30.8,1,-140,-4432,104
1773541226.9227302,23.2,30.8,1,-140,-4432,104
1773541226.9432414,23.2,30.8,1,-140,-4432,104
1773541226.9636445,23.2,30.8,1,-28,-4160,-8
1773541226.9839754,23.2,30.8,1,-28,-4160,-8
1773541227.0050585,23.2,30.8,0,-68,-3824,72
1773541227.0255017,23.2,30.8,0,-68,-3824,72
1773541227.0461416,23.2,30.8,0,-68,-3824,72
1773541227.0664053,23.2,30.8,0,-100,-3624,244
1773541227.087588,23.2,30.8,0,-100,-3624,244
1773541227.1083343,23.2,30.8,0,-36,-3976,0
1773541227.1287043,23.2,30.8,0,-36,-3976,0
1773541227.1489346,23.2,30.8,0,-36,-3976,0
1773541227.1693914,23.2,30.8,1,-164,-4508,-72
1773541227.1898153,23.2,30.8,1,-164,-4508,-72
1773541227.2102516,23.2,30.8,1,-164,-4508,-72
1773541227.2305188,23.2,30.8,1,-228,-4900,16
1773541227.250714,23.2,30.8,1,-228,-4900,16
1773541227.271461,23.2,30.8,1,-216,-4304,-156
1773541227.2919734,23.2,30.8,1,-216,-4304,-156
1773541227.3124132,23.2,30.8,1,-216,-4304,-156
1773541227.3330674,23.2,30.8,0,-284,-4832,72
1773541227.3540635,23.2,30.8,0,-284,-4832,72
1773541227.3746877,23.2,30.8,1,-180,-4460,24
1773541227.3951561,23.2,30.8,1,-180,-4460,24
1773541227.4160476,23.2,30.8,1,-180,-4460,24
1773541227.4368408,23.2,30.8,1,500,-2612,244
1773541227.457552,23.2,30.8,1,500,-2612,244
1773541227.4780188,23.2,30.8,0,-76,-3976,8
1773541227.4983907,23.2,30.8,0,-76,-3976,8
1773541227.5186222,23.2,30.8,0,-76,-3976,8
1773541227.5392554,23.2,30.8,0,-76,-3780,232
1773541227.5597737,23.2,30.8,0,-76,-3780,232
1773541227.5803554,23.2,30.8,0,-76,-3780,232
1773541227.6008456,23.2,30.8,0,-52,-3756,24
1773541227.6216516,23.2,30.8,0,-52,-3756,24
1773541227.6422641,23.2,30.8,1,-104,-4780,36
1773541227.6628153,23.2,30.8,1,-104,-4780,36
1773541227.683176,23.2,30.8,1,-104,-4780,36
1773541227.7037876,23.2,30.8,0,-116,-4164,140
1773541227.7241197,23.2,30.8,0,-116,-4164,140
1773541227.7447498,23.2,30.8,0,-128,-4520,64
1773541227.7652302,23.2,30.8,0,-128,-4520,64
1773541227.7856512,23.2,30.8,0,-128,-4520,64
1773541227.8062446,23.2,30.8,0,-140,-4388,56
1773541227.8268533,23.2,30.8,0,-140,-4388,56
1773541227.8472345,23.2,30.8,0,-56,-3696,-72
1773541227.8675137,23.2,30.8,0,-56,-3696,-72
1773541227.8890266,23.2,30.8,0,-56,-3696,-72
1773541227.9092715,23.2,30.8,0,-72,-3792,40
1773541227.9299424,23.2,30.8,0,-72,-3792,40
1773541227.9502583,23.2,30.8,0,-72,-3792,40
1773541227.970929,23.2,30.8,0,-104,-3928,84
1773541227.9912386,23.2,30.8,0,-104,-3928,84
1773541228.0117645,23.2,30.8,0,16,-3348,232
1773541228.032438,23.2,30.8,0,16,-3348,232
1773541228.0533412,23.2,30.8,0,16,-3348,232
1773541228.073886,23.2,30.8,0,-44,-3816,-8
1773541228.094488,23.2,30.8,0,-44,-3816,-8
1773541228.1148093,23.2,30.8,0,-208,-4368,116
1773541228.135087,23.2,30.8,0,-208,-4368,116
1773541228.1553159,23.2,30.8,0,-208,-4368,116
1773541228.1760967,23.2,30.8,0,-128,-4164,72
1773541228.1968582,23.2,30.8,0,-128,-4164,72
1773541228.2172608,23.2,30.8,0,-544,-5384,240
1773541228.238679,23.2,30.8,0,-544,-5384,240
1773541228.2592263,23.2,30.8,0,-544,-5384,240
1773541228.279587,23.2,30.8,0,-128,-4392,72
1773541228.3022377,23.2,30.8,0,-128,-4392,72
1773541228.3234856,23.2,30.8,0,-128,-4392,72
1773541228.3441985,23.2,30.8,1,-60,-4068,4
1773541228.3650174,23.2,30.8,1,-60,-4068,4
1773541228.3864095,23.2,30.8,0,-92,-3832,52
1773541228.4065866,23.2,30.8,0,-92,-3832,52
1773541228.427283,23.2,30.8,0,-92,-3832,52
1773541228.447761,23.2,30.8,0,-224,-3828,672
1773541228.4681747,23.2,30.8,0,-224,-3828,672
1773541228.488711,23.2,30.8,0,-196,-4352,-20
1773541228.5090003,23.2,30.8,0,-196,-4352,-20
1773541228.5295637,23.2,30.8,0,-196,-4352,-20
1773541228.5500703,23.2,30.8,0,-108,-3660,136
1773541228.5703344,23.2,30.8,0,-108,-3660,136
1773541228.5908918,23.2,30.8,1,-100,-4092,36
1773541228.6112792,23.2,30.8,1,-100,-4092,36
1773541228.6327112,23.2,30.8,1,-100,-4092,36
1773541228.6530762,23.2,30.8,0,-64,-4092,316
1773541228.6735237,23.2,30.8,0,-64,-4092,316
1773541228.693883,23.2,30.8,0,-64,-4092,316
1773541228.714262,23.2,30.8,0,-64,-4092,316
1773541228.7359617,23.2,30.6,0,-40,-3736,16
1773541228.7567117,23.2,30.6,0,-40,-3736,16
1773541228.777247,23.2,30.6,0,-72,-3792,8
1773541228.7989066,23.2,30.6,0,-72,-3792,8
1773541228.8196526,23.2,30.6,0,-72,-3792,8
1773541228.8404953,23.2,30.6,0,36,-3828,784
1773541228.8607662,23.2,30.6,0,36,-3828,784
1773541228.881505,23.2,30.6,0,-236,-4456,-36
1773541228.9025078,23.2,30.6,0,-236,-4456,-36
1773541228.9232912,23.2,30.6,0,-236,-4456,-36
1773541228.944061,23.2,30.6,0,-36,-3428,-60
1773541228.9647927,23.2,30.6,0,-36,-3428,-60
1773541228.9852397,23.2,30.6,1,-136,-3928,72
1773541229.0058868,23.2,30.6,1,-136,-3928,72
1773541229.0265014,23.2,30.6,1,-136,-3928,72
1773541229.0471065,23.2,30.6,0,116,-3004,1176
1773541229.0673382,23.2,30.6,0,116,-3004,1176
1773541229.0874949,23.2,30.6,0,116,-3004,1176
1773541229.1079326,23.2,30.6,0,-120,-4136,-12
1773541229.1283948,23.2,30.6,0,-120,-4136,-12
1773541229.1488535,23.2,30.6,0,-196,-3372,460
1773541229.1695795,23.2,30.6,0,-196,-3372,460
1773541229.19021,23.2,30.6,0,-196,-3372,460
1773541229.210775,23.2,30.6,1,-184,-4512,28
1773541229.231553,23.2,30.6,1,-184,-4512,28
1773541229.2520301,23.2,30.6,1,-116,-3064,380
1773541229.2730892,23.2,30.6,1,-116,-3064,380
1773541229.2936018,23.2,30.6,1,-116,-3064,380
1773541229.313869,23.2,30.6,1,28,-3360,-36
1773541229.3354475,23.2,30.6,1,28,-3360,-36
1773541229.3562624,23.2,30.6,0,-84,-4092,36
1773541229.376928,23.2,30.6,0,-84,-4092,36
1773541229.3971713,23.2,30.6,0,-84,-4092,36
1773541229.4177032,23.2,30.6,0,-60,-3960,-64
1773541229.438315,23.2,30.6,0,-60,-3960,-64
1773541229.458883,23.2,30.6,0,-60,-3960,-64
1773541229.4794564,23.2,30.6,1,-124,-3828,356
1773541229.4999156,23.2,30.6,1,-124,-3828,356
1773541229.5206525,23.2,30.6,1,-128,-4264,-8
1773541229.5409029,23.2,30.6,1,-128,-4264,-8
1773541229.5611715,23.2,30.6,1,-128,-4264,-8
1773541229.5815992,23.2,30.6,0,-108,-4808,-32
1773541229.601962,23.2,30.6,0,-108,-4808,-32
1773541229.622489,23.2,30.6,1,-176,-4176,72
1773541229.6431255,23.2,30.6,1,-176,-4176,72
1773541229.6635842,23.2,30.6,1,-176,-4176,72
1773541229.6841848,23.2,30.6,0,-68,-3704,304
1773541229.7045789,23.2,30.6,0,-68,-3704,304
1773541229.7249992,23.2,30.6,1,-96,-4072,-64
1773541229.7452734,23.2,30.6,1,-96,-4072,-64
1773541229.765956,23.2,30.6,1,-96,-4072,-64
1773541229.7864752,23.2,30.6,0,-132,-3900,52
1773541229.8071637,23.2,30.6,0,-132,-3900,52
1773541229.8275433,23.2,30.6,0,-132,-3900,52
1773541229.8478024,23.2,30.6,1,-56,-4012,-12
1773541229.8681185,23.2,30.6,1,-56,-4012,-12
1773541229.888709,23.2,30.6,1,-88,-5312,-248
1773541229.9092739,23.2,30.6,1,-88,-5312,-248
1773541229.9299395,23.2,30.6,1,-88,-5312,-248
1773541229.95037,23.2,30.6,0,-88,-4288,184
1773541229.9710414,23.2,30.6,0,-88,-4288,184
1773541229.9915643,23.2,30.6,0,-188,-4420,96
1773541230.01221,23.2,30.6,0,-188,-4420,96
1773541230.0328195,23.2,30.6,0,-188,-4420,96
1773541230.0537395,23.2,30.6,0,-148,-4496,20
1773541230.0743475,23.2,30.6,0,-148,-4496,20
1773541230.0948431,23.2,30.6,0,-164,-4192,52
1773541230.1151078,23.2,30.6,0,-164,-4192,52
1773541230.1356025,23.2,30.6,0,-164,-4192,52
1773541230.1576283,23.2,30.6,0,-80,-3816,24
1773541230.1788177,23.2,30.6,0,-80,-3816,24
1773541230.199293,23.2,30.6,0,-80,-3816,24
1773541230.2197914,23.2,30.6,0,-84,-4080,44
1773541230.2403126,23.2,30.6,0,-84,-4080,44
1773541230.2612092,23.2,30.6,0,-116,-4076,32
1773541230.2820563,23.2,30.6,0,-116,-4076,32
1773541230.303262,23.2,30.6,0,-116,-4076,32
1773541230.3244462,23.2,30.6,0,-68,-3972,36
1773541230.3453896,23.2,30.6,0,-68,-3972,36
1773541230.3661835,23.2,30.6,0,-128,-4124,28
1773541230.3881245,23.2,30.6,0,-128,-4124,28
1773541230.4089127,23.2,30.6,0,-128,-4124,28
1773541230.4296594,23.2,30.6,0,-100,-4180,60
1773541230.4505446,23.2,30.6,0,-100,-4180,60
1773541230.471185,23.2,30.6,0,-124,-4124,12
1773541230.4917126,23.2,30.6,0,-124,-4124,12
1773541230.512268,23.2,30.6,0,-124,-4124,12
1773541230.5328836,23.2,30.6,0,-100,-4180,80
1773541230.5533395,23.2,30.6,0,-100,-4180,80
1773541230.5747712,23.2,30.6,0,-120,-4156,36
1773541230.5953047,23.2,30.6,0,-120,-4156,36
1773541230.616087,23.2,30.6,0,-120,-4156,36
1773541230.636657,23.2,30.6,0,-116,-4080,24
1773541230.6573415,23.2,30.6,0,-116,-4080,24
1773541230.6781535,23.2,30.6,0,-240,-4124,-144
1773541230.6988866,23.2,30.6,0,-240,-4124,-144
1773541230.7197044,23.2,30.6,0,-240,-4124,-144
1773541230.7404027,23.2,30.6,0,-240,-4124,-144
1773541230.7611597,23.2,30.4,0,-76,-4088,440
1773541230.781878,23.2,30.4,0,-76,-4088,440
1773541230.8037379,23.2,30.4,0,-76,-4088,440
1773541230.8244746,23.2,30.4,0,-284,-4720,1228
1773541230.8452525,23.2,30.4,0,-284,-4720,1228
1773541230.869309,23.2,30.4,0,-132,-4564,-212
1773541230.8896725,23.2,30.4,0,-132,-4564,-212
1773541230.9104314,23.2,30.4,0,-132,-4564,-212
1773541230.9313853,23.2,30.4,0,-264,-3964,452
1773541230.9519284,23.2,30.4,0,-264,-3964,452
1773541230.9724407,23.2,30.4,0,-224,-4316,-24
1773541230.9930334,23.2,30.4,0,-224,-4316,-24
1773541231.0134985,23.2,30.4,0,-224,-4316,-24
1773541231.034215,23.2,30.4,0,-36,-3812,176
1773541231.05488,23.2,30.4,0,-36,-3812,176
1773541231.0754514,23.2,30.4,0,188,-3928,-344
1773541231.0958152,23.2,30.4,0,188,-3928,-344
1773541231.1164014,23.2,30.4,0,188,-3928,-344
1773541231.1497698,23.2,30.4,0,528,-4200,-756
1773541231.171472,23.2,30.4,0,528,-4200,-756
1773541231.1919837,23.2,30.4,0,364,-4716,-1184
1773541231.212355,23.2,30.4,0,364,-4716,-1184
1773541231.2329106,23.2,30.4,1,580,-3572,-736
1773541231.253354,23.2,30.4,1,580,-3572,-736
1773541231.2743833,23.2,30.4,1,580,-3572,-736
1773541231.2950037,23.2,30.4,0,704,-4100,-1860
1773541231.3169804,23.2,30.4,0,704,-4100,-1860
1773541231.3374255,23.2,30.4,0,460,-4168,-1328
1773541231.3578913,23.2,30.4,0,460,-4168,-1328
1773541231.3782966,23.2,30.4,0,460,-4168,-1328
1773541231.3990192,23.2,30.4,0,240,-4100,-984
1773541231.4196742,23.2,30.4,0,240,-4100,-984
1773541231.4403684,23.2,30.4,0,240,-4100,-984
1773541231.461129,23.2,30.4,0,228,-3688,-684
1773541231.4820528,23.2,30.4,0,228,-3688,-684
1773541231.50296,23.2,30.4,0,504,-3740,-392
1773541231.5236688,23.2,30.4,0,504,-3740,-392
1773541231.544246,23.2,30.4,0,504,-3740,-392
1773541231.5649047,23.2,30.4,0,140,-3996,-360
1773541231.5853367,23.2,30.4,0,140,-3996,-360
1773541231.6057522,23.2,30.4,0,36,-3904,-400
1773541231.6263168,23.2,30.4,0,36,-3904,-400
1773541231.6470785,23.2,30.4,0,36,-3904,-400
1773541231.6675107,23.2,30.4,0,240,-4944,480
1773541231.6886811,23.2,30.4,0,240,-4944,480
1773541231.7092228,23.2,30.4,0,180,-3740,-224
1773541231.7299623,23.2,30.4,0,180,-3740,-224
1773541231.750248,23.2,30.4,0,180,-3740,-224
1773541231.770935,23.2,30.4,0,-20,-4196,560
1773541231.7914927,23.2,30.4,0,-20,-4196,560
1773541231.8124003,23.2,30.4,0,64,-4076,632
1773541231.8329408,23.2,30.4,0,64,-4076,632
1773541231.8536866,23.2,30.4,0,64,-4076,632
1773541231.874424,23.2,30.4,0,100,-4212,616
1773541231.8948534,23.2,30.4,0,100,-4212,616
1773541231.9152346,23.2,30.4,0,100,-4212,616
1773541231.9359155,23.2,30.4,0,-36,-4332,980
1773541231.9565887,23.2,30.4,0,-36,-4332,980
1773541231.9774249,23.2,30.4,0,-60,-3860,920
1773541231.998369,23.2,30.4,0,-60,-3860,920
1773541232.0191169,23.2,30.4,0,-60,-3860,920
1773541232.0397065,23.2,30.4,0,-92,-4244,808
1773541232.0604446,23.2,30.4,0,-92,-4244,808
1773541232.08132,23.2,30.4,0,0,-4160,352
1773541232.1016014,23.2,30.4,0,0,-4160,352
1773541232.122022,23.2,30.4,0,0,-4160,352
1773541232.1429012,23.2,30.4,0,292,-4184,16
1773541232.1636503,23.2,30.4,0,292,-4184,16
1773541232.1864557,23.2,30.4,0,204,-4348,-160
1773541232.2078269,23.2,30.4,0,204,-4348,-160
1773541232.2286732,23.2,30.4,0,204,-4348,-160
1773541232.2523077,23.2,30.4,0,184,-3628,-452
1773541232.2731097,23.2,30.4,0,184,-3628,-452
1773541232.2939506,23.2,30.4,0,444,-4088,-552
1773541232.3147197,23.2,30.4,0,444,-4088,-552
1773541232.335328,23.2,30.4,0,444,-4088,-552
1773541232.3562677,23.2,30.4,0,372,-4172,-492
1773541232.3767104,23.2,30.4,0,372,-4172,-492
1773541232.397233,23.2,30.4,0,272,-3976,-208
1773541232.417671,23.2,30.4,0,272,-3976,-208
1773541232.4380648,23.2,30.4,0,272,-3976,-208
1773541232.4584074,23.2,30.4,0,416,-3988,-292
1773541232.478779,23.2,30.4,0,416,-3988,-292
1773541232.4991848,23.2,30.4,0,416,-3988,-292
1773541232.5193925,23.2,30.4,0,832,-4432,-688
1773541232.539678,23.2,30.4,0,832,-4432,-688
1773541232.5602822,23.2,30.4,0,984,-4696,-1116
1773541232.5809083,23.2,30.4,0,984,-4696,-1116
1773541232.6015563,23.2,30.4,0,984,-4696,-1116
1773541232.622336,23.2,30.4,0,804,-4288,-1044
1773541232.6428852,23.2,30.4,0,804,-4288,-1044
1773541232.6636543,23.2,30.4,0,540,-4024,-1020
1773541232.684282,23.2,30.4,0,540,-4024,-1020
1773541232.704853,23.2,30.4,0,540,-4024,-1020
1773541232.7256277,23.2,30.4,0,372,-4068,-432
1773541232.7467177,23.2,30.4,0,372,-4068,-432
1773541232.7671924,23.2,30.4,0,372,-4068,-432
1773541232.7879732,23.2,30.4,0,372,-4068,-432
1773541232.8086984,23.2,30.2,0,-28,-3984,-128
1773541232.8293214,23.2,30.2,0,-28,-3984,-128
1773541232.8498178,23.2,30.2,1,-124,-3460,112
1773541232.8709457,23.2,30.2,1,-124,-3460,112
1773541232.8914707,23.2,30.2,1,-124,-3460,112
1773541232.9121625,23.2,30.2,0,112,-3888,140
1773541232.932686,23.2,30.2,0,112,-3888,140
1773541232.9532523,23.2,30.2,0,60,-4000,604
1773541232.973761,23.2,30.2,0,60,-4000,604
1773541232.9942405,23.2,30.2,0,60,-4000,604
1773541233.0150266,23.2,30.2,0,96,-4124,184
1773541233.035488,23.2,30.2,0,96,-4124,184
1773541233.0560668,23.2,30.2,0,-40,-4324,608
1773541233.076464,23.2,30.2,0,-40,-4324,608
1773541233.0973,23.2,30.2,0,-40,-4324,608
1773541233.1177294,23.2,30.2,0,144,-4304,876
1773541233.13799,23.2,30.2,0,144,-4304,876
1773541233.1586251,23.2,30.2,0,144,-4304,876
1773541233.178865,23.2,30.2,0,140,-4448,1524
1773541233.1998377,23.2,30.2,0,140,-4448,1524
1773541233.2209806,23.2,30.2,0,336,-4276,1420
1773541233.2416534,23.2,30.2,0,336,-4276,1420
1773541233.2623236,23.2,30.2,0,336,-4276,1420
1773541233.2830596,23.2,30.2,0,152,-4392,1068
1773541233.3046176,23.2,30.2,0,152,-4392,1068
1773541233.3251524,23.2,30.2,0,56,-3816,860
1773541233.3460784,23.2,30.2,0,56,-3816,860
1773541233.36667,23.2,30.2,0,56,-3816,860
1773541233.3888521,23.2,30.2,0,188,-3856,324
1773541233.4098425,23.2,30.2,0,188,-3856,324
1773541233.4305732,23.2,30.2,0,164,-4368,-80
1773541233.4512959,23.2,30.2,0,164,-4368,-80
1773541233.4722466,23.2,30.2,0,164,-4368,-80
1773541233.493261,23.2,30.2,0,540,-3828,-224
1773541233.5137222,23.2,30.2,0,540,-3828,-224
1773541233.5343492,23.2,30.2,0,108,-4304,-656
1773541233.5545702,23.2,30.2,0,108,-4304,-656
1773541233.5751183,23.2,30.2,0,108,-4304,-656
1773541233.5966344,23.2,30.2,0,40,-3592,128
1773541233.6175537,23.2,30.2,0,40,-3592,128
1773541233.6380725,23.2,30.2,0,40,-3592,128
1773541233.6583734,23.2,30.2,0,236,-4268,-428
1773541233.6788576,23.2,30.2,0,236,-4268,-428
1773541233.6995618,23.2,30.2,0,296,-4148,-132
1773541233.7210464,23.2,30.2,0,296,-4148,-132
1773541233.741761,23.2,30.2,0,296,-4148,-132
1773541233.7625375,23.2,30.2,0,380,-4204,-288
1773541233.7840855,23.2,30.2,0,380,-4204,-288
1773541233.8048775,23.2,30.2,0,908,-4492,-912
1773541233.8255858,23.2,30.2,0,908,-4492,-912
1773541233.8460996,23.2,30.2,0,908,-4492,-912
1773541233.8668916,23.2,30.2,0,1000,-4984,-1384
1773541233.8872128,23.2,30.2,0,1000,-4984,-1384
1773541233.9078448,23.2,30.2,0,536,-4320,-1040
1773541233.9281986,23.2,30.2,0,536,-4320,-1040
1773541233.9485793,23.2,30.2,0,536,-4320,-1040
1773541233.9690294,23.2,30.2,0,228,-4152,-500
1773541233.9893343,23.2,30.2,0,228,-4152,-500
1773541234.0100126,23.2,30.2,0,184,-3836,-504
1773541234.030491,23.2,30.2,0,184,-3836,-504
1773541234.050747,23.2,30.2,0,184,-3836,-504
1773541234.0713177,23.2,30.2,0,8,-3712,20
1773541234.0920744,23.2,30.2,0,8,-3712,20
1773541234.1124418,23.2,30.2,0,8,-3712,20
1773541234.1328142,23.2,30.2,0,-100,-3972,424
1773541234.1539085,23.2,30.2,0,-100,-3972,424
1773541234.1746194,23.2,30.2,0,-28,-3564,212
1773541234.1950824,23.2,30.2,0,-28,-3564,212
1773541234.2155287,23.2,30.2,0,-28,-3564,212
1773541234.2361526,23.2,30.2,0,0,-3748,-116
1773541234.256695,23.2,30.2,0,0,-3748,-116
1773541234.2773812,23.2,30.2,0,44,-4108,192
1773541234.2979329,23.2,30.2,0,44,-4108,192
1773541234.3184576,23.2,30.2,0,44,-4108,192
1773541234.3389058,23.2,30.2,0,72,-4284,292
1773541234.3594365,23.2,30.2,0,72,-4284,292
1773541234.3802264,23.2,30.2,0,208,-4284,700
1773541234.4005857,23.2,30.2,0,208,-4284,700
1773541234.4213474,23.2,30.2,0,208,-4284,700
1773541234.4420528,23.2,30.2,0,36,-4284,1364
1773541234.462705,23.2,30.2,0,36,-4284,1364
1773541234.4831707,23.2,30.2,0,36,-4284,1364
1773541234.5043745,23.2,30.2,0,108,-4572,2008
1773541234.5252607,23.2,30.2,0,108,-4572,2008
1773541234.545845,23.2,30.2,0,224,-4420,1424
1773541234.5662189,23.2,30.2,0,224,-4420,1424
1773541234.5866916,23.2,30.2,0,224,-4420,1424
1773541234.6074562,23.2,30.2,0,292,-4296,888
1773541234.6281233,23.2,30.2,0,292,-4296,888
1773541234.6484597,23.2,30.2,0,360,-4224,776
1773541234.6687324,23.2,30.2,0,360,-4224,776
1773541234.6892264,23.2,30.2,0,360,-4224,776
1773541234.7100818,23.2,30.2,0,156,-4172,-36
1773541234.730471,23.2,30.2,0,156,-4172,-36
1773541234.750828,23.2,30.2,0,128,-3640,692
1773541234.7711573,23.2,30.2,0,128,-3640,692
1773541234.7917454,23.2,30.2,0,128,-3640,692
1773541234.812612,23.2,30.2,0,128,-3640,692
1773541234.833554,23.2,30.0,0,392,-3928,-568
1773541234.854511,23.2,30.0,0,392,-3928,-568
1773541234.8752804,23.2,30.0,0,392,-3928,-568
1773541234.8959591,23.2,30.0,0,284,-3956,-236
1773541234.918139,23.2,30.0,0,284,-3956,-236
1773541234.9398942,23.2,30.0,0,212,-3580,-692
1773541234.9605708,23.2,30.0,0,212,-3580,-692
1773541234.981491,23.2,30.0,0,212,-3580,-692
1773541235.002443,23.2,30.0,0,608,-4140,-852
1773541235.0227776,23.2,30.0,0,608,-4140,-852
1773541235.0432327,23.2,30.0,0,708,-4652,-1240
1773541235.0637133,23.2,30.0,0,708,-4652,-1240
1773541235.0841339,23.2,30.0,0,708,-4652,-1240
1773541235.1051655,23.2,30.0,0,828,-4724,-1204
1773541235.126144,23.2,30.0,0,828,-4724,-1204
1773541235.146674,23.2,30.0,0,832,-4680,-1356
1773541235.1670635,23.2,30.0,0,832,-4680,-1356
1773541235.1880138,23.2,30.0,0,832,-4680,-1356
1773541235.208554,23.2,30.0,0,432,-4388,-1032
1773541235.2294092,23.2,30.0,0,432,-4388,-1032
1773541235.2499855,23.2,30.0,0,432,-4388,-1032
1773541235.2706885,23.2,30.0,0,236,-3892,-540
1773541235.2912817,23.2,30.0,0,236,-3892,-540
1773541235.3116865,23.2,30.0,0,136,-3832,-232
1773541235.3326795,23.2,30.0,0,136,-3832,-232
1773541235.352839,23.2,30.0,0,136,-3832,-232
1773541235.3733196,23.2,30.0,0,-92,-3632,-140
1773541235.3938346,23.2,30.0,0,-92,-3632,-140
1773541235.4149044,23.2,30.0,0,-228,-3720,172
1773541235.4354103,23.2,30.0,0,-228,-3720,172
1773541235.4561193,23.2,30.0,0,-228,-3720,172
1773541235.4767861,23.2,30.0,0,44,-3564,-88
1773541235.4982662,23.2,30.0,0,44,-3564,-88
1773541235.5189052,23.2,30.0,0,92,-4208,540
1773541235.5400612,23.2,30.0,0,92,-4208,540
1773541235.5610769,23.2,30.0,0,92,-4208,540
1773541235.5816946,23.2,30.0,0,-356,-3352,1000
1773541235.6024594,23.2,30.0,0,-356,-3352,1000
1773541235.6229138,23.2,30.0,0,100,-3764,716
1773541235.6436598,23.2,30.0,0,100,-3764,716
1773541235.6646,23.2,30.0,0,100,-3764,716
1773541235.6848538,23.2,30.0,0,216,-4500,1520
1773541235.705578,23.2,30.0,0,216,-4500,1520
1773541235.7260287,23.2,30.0,0,216,-4500,1520
1773541235.7463267,23.2,30.0,0,400,-4684,1184
1773541235.7667015,23.2,30.0,0,400,-4684,1184
1773541235.787137,23.2,30.0,0,412,-4680,1316
1773541235.8081925,23.2,30.0,0,412,-4680,1316
1773541235.8292418,23.2,30.0,0,412,-4680,1316
1773541235.8499055,23.2,30.0,0,212,-4752,1028
1773541235.8708463,23.2,30.0,0,212,-4752,1028
1773541235.8913398,23.2,30.0,0,108,-4120,956
1773541235.911695,23.2,30.0,0,108,-4120,956
1773541235.9322689,23.2,30.0,0,108,-4120,956
1773541235.9528937,23.2,30.0,0,64,-3840,456
1773541235.9732208,23.2,30.0,0,64,-3840,456
1773541235.9935966,23.2,30.0,0,4,-3760,140
1773541236.0141098,23.2,30.0,0,4,-3760,140
1773541236.0349367,23.2,30.0,0,4,-3760,140
1773541236.0556638,23.2,30.0,0,52,-3828,16
1773541236.0761826,23.2,30.0,0,52,-3828,16
1773541236.097021,23.2,30.0,0,52,-3828,16
1773541236.1172833,23.2,30.0,0,28,-3960,-796
1773541236.137645,23.2,30.0,0,28,-3960,-796
1773541236.1583536,23.2,30.0,0,132,-3856,-392
1773541236.1786833,23.2,30.0,0,132,-3856,-392
1773541236.1992111,23.2,30.0,0,132,-3856,-392
1773541236.219864,23.2,30.0,0,140,-4016,-684
1773541236.240361,23.2,30.0,0,140,-4016,-684
1773541236.260773,23.2,30.0,0,192,-3892,-528
1773541236.2811477,23.2,30.0,0,192,-3892,-528
1773541236.3017828,23.2,30.0,0,192,-3892,-528
1773541236.322437,23.2,30.0,0,564,-4492,-1120
1773541236.3426511,23.2,30.0,0,564,-4492,-1120
1773541236.362855,23.2,30.0,0,956,-4840,-1444
1773541236.3833625,23.2,30.0,0,956,-4840,-1444
1773541236.403702,23.2,30.0,0,956,-4840,-1444
1773541236.4244616,23.2,30.0,1,696,-4540,-1432
1773541236.4451573,23.2,30.0,1,696,-4540,-1432
1773541236.4662793,23.2,30.0,1,696,-4540,-1432
1773541236.4872398,23.2,30.0,0,416,-4224,-780
1773541236.5080216,23.2,30.0,0,416,-4224,-780
1773541236.528836,23.2,30.0,0,196,-3932,44
1773541236.549385,23.2,30.0,0,196,-3932,44
1773541236.5696824,23.2,30.0,0,196,-3932,44
1773541236.5907931,23.2,30.0,0,332,-3808,92
1773541236.6113343,23.2,30.0,0,332,-3808,92
1773541236.631931,23.2,30.0,0,372,-4248,144
1773541236.6528602,23.2,30.0,0,372,-4248,144
1773541236.6732447,23.2,30.0,0,372,-4248,144
1773541236.6935508,23.2,30.0,0,216,-3684,108
1773541236.7140799,23.2,30.0,0,216,-3684,108
1773541236.7346506,23.2,30.0,0,112,-3704,388
1773541236.7554128,23.2,30.0,0,112,-3704,388
1773541236.7761269,23.2,30.0,0,112,-3704,388
1773541236.7966745,23.2,30.0,0,-4,-4016,448
1773541236.8172865,23.2,30.0,0,-4,-4016,448
1773541236.8393362,23.2,30.0,0,-4,-4016,448
1773541236.8596117,23.2,30.0,0,-4,-4016,448
1773541236.8804789,23.2,28.9,0,-916,-4400,1240
1773541236.9009087,23.2,28.9,0,-916,-4400,1240
1773541236.9214945,23.2,28.9,0,-1204,-4424,848
1773541236.9421904,23.2,28.9,0,-1204,-4424,848
1773541236.9629807,23.2,28.9,0,-1204,-4424,848
1773541236.9833128,23.2,28.9,0,-856,-4492,508
1773541237.0038502,23.2,28.9,0,-856,-4492,508
1773541237.0249522,23.2,28.9,0,-824,-4136,-36
1773541237.0458364,23.2,28.9,0,-824,-4136,-36
1773541237.0663552,23.2,28.9,0,-824,-4136,-36
1773541237.0872266,23.2,28.9,0,-468,-3840,236
1773541237.108,23.2,28.9,0,-468,-3840,236
1773541237.1286423,23.2,28.9,0,-468,-3840,236
1773541237.1502104,23.2,28.9,0,-272,-4088,-104
1773541237.1708057,23.2,28.9,0,-272,-4088,-104
1773541237.191187,23.2,28.9,0,-28,-3976,-628
1773541237.2120261,23.2,28.9,0,-28,-3976,-628
1773541237.2336152,23.2,28.9,0,-28,-3976,-628
1773541237.2546043,23.2,28.9,0,-8,-3980,208
1773541237.2752008,23.2,28.9,0,-8,-3980,208
1773541237.2957559,23.2,28.9,0,204,-3972,-536
1773541237.3162384,23.2,28.9,0,204,-3972,-536
1773541237.3367167,23.2,28.9,0,204,-3972,-536
1773541237.3574762,23.2,28.9,0,312,-3992,4
1773541237.378107,23.2,28.9,0,312,-3992,4
1773541237.3986952,23.2,28.9,0,704,-4248,-620
1773541237.419237,23.2,28.9,0,704,-4248,-620
1773541237.439812,23.2,28.9,0,704,-4248,-620
1773541237.4603488,23.2,28.9,0,824,-4064,-492
1773541237.4806209,23.2,28.9,0,824,-4064,-492
1773541237.501349,23.2,28.9,0,1236,-4112,-184
1773541237.5218291,23.2,28.9,0,1236,-4112,-184
1773541237.5422769,23.2,28.9,0,1236,-4112,-184
1773541237.56263,23.2,28.9,0,1616,-4832,-756
1773541237.583801,23.2,28.9,0,1616,-4832,-756
1773541237.6045752,23.2,28.9,0,1616,-4832,-756
1773541237.6253288,23.2,28.9,0,1436,-4248,-324
1773541237.6456478,23.2,28.9,0,1436,-4248,-324
1773541237.6673708,23.2,28.9,0,972,-4236,-220
1773541237.6890628,23.2,28.9,0,972,-4236,-220
1773541237.7094252,23.2,28.9,0,972,-4236,-220
1773541237.7296846,23.2,28.9,0,856,-3648,308
1773541237.7500134,23.2,28.9,0,856,-3648,308
1773541237.7705944,23.2,28.9,0,408,-4192,96
1773541237.7912333,23.2,28.9,0,408,-4192,96
1773541237.8117225,23.2,28.9,0,408,-4192,96
1773541237.832197,23.2,28.9,0,212,-3696,-144
1773541237.852829,23.2,28.9,0,212,-3696,-144
1773541237.8734434,23.2,28.9,0,-20,-3892,-56
1773541237.8942149,23.2,28.9,0,-20,-3892,-56
1773541237.9150262,23.2,28.9,0,-20,-3892,-56
1773541237.9356391,23.2,28.9,0,-392,-4112,-60
1773541237.9565156,23.2,28.9,0,-392,-4112,-60
1773541237.9768043,23.2,28.9,0,-492,-3596,276
1773541237.9974747,23.2,28.9,0,-492,-3596,276
1773541238.018147,23.2,28.9,0,-492,-3596,276
1773541238.0388649,23.2,28.9,0,-504,-4112,296
1773541238.0593808,23.2,28.9,0,-504,-4112,296
1773541238.079823,23.2,28.9,0,-504,-4112,296
1773541238.1006122,23.2,28.9,0,-388,-4016,64
1773541238.1210966,23.2,28.9,0,-388,-4016,64
1773541238.1415622,23.2,28.9,0,-472,-4296,-216
1773541238.1621397,23.2,28.9,0,-472,-4296,-216
1773541238.183084,23.2,28.9,0,-472,-4296,-216
1773541238.2033122,23.2,28.9,0,-604,-4448,-160
1773541238.2236166,23.2,28.9,0,-604,-4448,-160
1773541238.2439904,23.2,28.9,0,-960,-4176,-80
1773541238.2642236,23.2,28.9,0,-960,-4176,-80
1773541238.2846522,23.2,28.9,0,-960,-4176,-80
1773541238.3053503,23.2,28.9,0,-820,-4044,-220
1773541238.325723,23.2,28.9,0,-820,-4044,-220
1773541238.3465497,23.2,28.9,0,-820,-4044,-220
1773541238.3667808,23.2,28.9,0,-760,-4460,-352
1773541238.3873343,23.2,28.9,0,-760,-4460,-352
1773541238.4076982,23.2,28.9,0,-568,-4000,-84
1773541238.4284184,23.2,28.9,0,-568,-4000,-84
1773541238.4485347,23.2,28.9,0,-568,-4000,-84
1773541238.469175,23.2,28.9,0,-504,-4328,-184
1773541238.4897888,23.2,28.9,0,-504,-4328,-184
1773541238.5102563,23.2,28.9,0,-328,-3904,-56
1773541238.5308974,23.2,28.9,0,-328,-3904,-56
1773541238.5512404,23.2,28.9,0,-328,-3904,-56
1773541238.571399,23.2,28.9,0,16,-4328,-48
1773541238.5918503,23.2,28.9,0,16,-4328,-48
1773541238.6129827,23.2,28.9,0,60,-4060,-460
1773541238.6331444,23.2,28.9,0,60,-4060,-460
1773541238.6546996,23.2,28.9,0,60,-4060,-460
1773541238.6753633,23.2,28.9,0,224,-3820,-288
1773541238.6959257,23.2,28.9,0,224,-3820,-288
1773541238.720354,23.2,28.9,0,224,-3820,-288
1773541238.7406015,23.2,28.9,0,312,-4300,-396
1773541238.7614262,23.2,28.9,0,312,-4300,-396
1773541238.7818613,23.2,28.9,0,368,-3684,-228
1773541238.802413,23.2,28.9,0,368,-3684,-228
1773541238.823215,23.2,28.9,0,536,-3896,-692
1773541238.8437903,23.2,28.9,0,536,-3896,-692
1773541238.8642967,23.2,28.9,0,536,-3896,-692
1773541238.8847022,23.2,28.9,0,536,-3896,-692
1773541238.905482,23.2,28.5,0,1092,-4468,-324
1773541238.925946,23.2,28.5,0,1092,-4468,-324
1773541238.9465613,23.2,28.5,0,1092,-4468,-324
1773541238.967371,23.2,28.5,0,1332,-4808,-356
1773541238.9879014,23.2,28.5,0,1332,-4808,-356
1773541239.008267,23.2,28.5,0,1072,-4236,-180
1773541239.0288742,23.2,28.5,0,1072,-4236,-180
1773541239.0493689,23.2,28.5,0,1072,-4236,-180
1773541239.070184,23.2,28.5,0,916,-3756,72
1773541239.090885,23.2,28.5,0,916,-3756,72
1773541239.1111414,23.2,28.5,0,916,-3756,72
1773541239.131572,23.2,28.5,0,588,-4204,-68
1773541239.1519654,23.2,28.5,0,588,-4204,-68
1773541239.1726978,23.2,28.5,0,456,-3776,-36
1773541239.1935208,23.2,28.5,0,456,-3776,-36
1773541239.214032,23.2,28.5,0,456,-3776,-36
1773541239.2342887,23.2,28.5,0,368,-3696,176
1773541239.2546096,23.2,28.5,0,368,-3696,176
1773541239.275168,23.2,28.5,0,-132,-4368,-368
1773541239.2955084,23.2,28.5,0,-132,-4368,-368
1773541239.3161228,23.2,28.5,0,-132,-4368,-368
1773541239.3367064,23.2,28.5,0,-252,-4236,-92
1773541239.3576229,23.2,28.5,0,-252,-4236,-92
1773541239.3779387,23.2,28.5,0,-184,-3940,-340
1773541239.3982902,23.2,28.5,0,-184,-3940,-340
1773541239.418808,23.2,28.5,0,-184,-3940,-340
1773541239.4394443,23.2,28.5,0,-184,-3796,-464
1773541239.460298,23.2,28.5,0,-184,-3796,-464
1773541239.4808917,23.2,28.5,0,-184,-3796,-464
1773541239.501158,23.2,28.5,0,-456,-4204,224
1773541239.5214589,23.2,28.5,0,-456,-4204,224
1773541239.541896,23.2,28.5,0,-756,-4484,100
1773541239.5622392,23.2,28.5,0,-756,-4484,100
1773541239.5830433,23.2,28.5,0,-756,-4484,100
1773541239.6037445,23.2,28.5,0,-972,-4428,56
1773541239.6241438,23.2,28.5,0,-972,-4428,56
1773541239.6447573,23.2,28.5,0,-1220,-4364,-172
1773541239.6653643,23.2,28.5,0,-1220,-4364,-172
1773541239.686197,23.2,28.5,0,-1220,-4364,-172
1773541239.7066898,23.2,28.5,0,-1008,-3816,-144
1773541239.7272553,23.2,28.5,0,-1008,-3816,-144
1773541239.7479224,23.2,28.5,0,-1008,-3816,-144
1773541239.7682383,23.2,28.5,0,-820,-4256,-412
1773541239.7889607,23.2,28.5,0,-820,-4256,-412
1773541239.8092499,23.2,28.5,0,-548,-3868,96
1773541239.8297007,23.2,28.5,0,-548,-3868,96
1773541239.8501925,23.2,28.5,0,-548,-3868,96
1773541239.8709688,23.2,28.5,0,-404,-4092,56
1773541239.8913152,23.2,28.5,0,-404,-4092,56
1773541239.9117737,23.2,28.5,0,88,-4300,-204
1773541239.932455,23.2,28.5,0,88,-4300,-204
1773541239.9528973,23.2,28.5,0,88,-4300,-204
1773541239.9731903,23.2,28.5,0,28,-4148,-484
1773541239.993472,23.2,28.5,0,28,-4148,-484
1773541240.0141938,23.2,28.5,0,-44,-3780,-320
1773541240.0348346,23.2,28.5,0,-44,-3780,-320
1773541240.0554197,23.2,28.5,0,-44,-3780,-320
1773541240.0760126,23.2,28.5,0,356,-3788,-224
1773541240.0965135,23.2,28.5,0,356,-3788,-224
1773541240.116931,23.2,28.5,0,356,-3788,-224
1773541240.137499,23.2,28.5,0,476,-4004,116
1773541240.158368,23.2,28.5,0,476,-4004,116
1773541240.178877,23.2,28.5,0,1200,-4052,-228
1773541240.1996224,23.2,28.5,0,1200,-4052,-228
1773541240.2203615,23.2,28.5,0,1200,-4052,-228
1773541240.2411973,23.2,28.5,0,1248,-4256,-540
1773541240.2616947,23.2,28.5,0,1248,-4256,-540
1773541240.2821965,23.2,28.5,0,1324,-4132,-336
1773541240.302652,23.2,28.5,0,1324,-4132,-336
1773541240.3234217,23.2,28.5,0,1324,-4132,-336
1773541240.3442469,23.2,28.5,0,884,-4368,-440
1773541240.3651493,23.2,28.5,0,884,-4368,-440
1773541240.385522,23.2,28.5,0,808,-4020,-180
1773541240.4061742,23.2,28.5,0,808,-4020,-180
1773541240.426881,23.2,28.5,0,808,-4020,-180
1773541240.4478467,23.2,28.5,0,456,-4104,-60
1773541240.4682238,23.2,28.5,0,456,-4104,-60
1773541240.4884846,23.2,28.5,0,456,-4104,-60
1773541240.508846,23.2,28.5,0,452,-3888,-364
1773541240.5296254,23.2,28.5,0,452,-3888,-364
1773541240.5511882,23.2,28.5,0,144,-3592,-320
1773541240.5722027,23.2,28.5,0,144,-3592,-320
1773541240.592918,23.2,28.5,0,144,-3592,-320
1773541240.6137614,23.2,28.5,0,-356,-3188,-168
1773541240.6343117,23.2,28.5,0,-356,-3188,-168
1773541240.655278,23.2,28.5,0,-696,-3784,-108
1773541240.6757805,23.2,28.5,0,-696,-3784,-108
1773541240.6961737,23.2,28.5,0,-696,-3784,-108
1773541240.7164187,23.2,28.5,0,-736,-5428,-72
1773541240.7372565,23.2,28.5,0,-736,-5428,-72
1773541240.7580214,23.2,28.5,0,-624,-5864,-228
1773541240.7790074,23.2,28.5,0,-624,-5864,-228
1773541240.8015187,23.2,28.5,0,-624,-5864,-228
1773541240.8238006,23.2,28.5,0,-484,-5708,-632
1773541240.8446984,23.2,28.5,0,-484,-5708,-632
1773541240.8658125,23.2,28.5,0,-620,-5480,-212
1773541240.8869994,23.2,28.5,0,-620,-5480,-212
1773541240.9074936,23.2,28.5,0,-620,-5480,-212
1773541240.928229,23.2,28.5,0,-620,-5480,-212
1773541240.949638,23.2,28.1,0,-304,-3844,-128
1773541240.9703813,23.2,28.1,0,-304,-3844,-128
1773541240.990732,23.2,28.1,0,-280,-4336,-68
1773541241.0117133,23.2,28.1,0,-280,-4336,-68
1773541241.0323558,23.2,28.1,0,-280,-4336,-68
1773541241.0532374,23.2,28.1,0,-28,-3724,-208
1773541241.073637,23.2,28.1,0,-28,-3724,-208
1773541241.0941803,23.2,28.1,0,-28,-3724,-208
1773541241.1150198,23.2,28.1,0,-280,-3072,-488
1773541241.1353815,23.2,28.1,0,-280,-3072,-488
1773541241.1560233,23.2,28.1,0,-296,-3128,428
1773541241.180772,23.2,28.1,0,-296,-3128,428
1773541241.2012386,23.2,28.1,0,-296,-3128,428
1773541241.2217119,23.2,28.1,0,-336,-3172,332
1773541241.2423575,23.2,28.1,0,-336,-3172,332
1773541241.2628767,23.2,28.1,0,-476,-2248,-32
1773541241.2834682,23.2,28.1,0,-476,-2248,-32
1773541241.3039584,23.2,28.1,0,-476,-2248,-32
1773541241.3245614,23.2,28.1,0,-432,-2484,484
1773541241.345166,23.2,28.1,0,-432,-2484,484
1773541241.3655863,23.2,28.1,0,-448,-3088,128
1773541241.385998,23.2,28.1,0,-448,-3088,128
1773541241.4065409,23.2,28.1,0,-448,-3088,128
1773541241.427425,23.2,28.1,0,-388,-3508,144
1773541241.4479651,23.2,28.1,0,-388,-3508,144
1773541241.4686308,23.2,28.1,0,-140,-3940,420
1773541241.4890945,23.2,28.1,0,-140,-3940,420
1773541241.5094686,23.2,28.1,0,-140,-3940,420
1773541241.5301368,23.2,28.1,1,-180,-3936,-112
1773541241.5511193,23.2,28.1,1,-180,-3936,-112
1773541241.571985,23.2,28.1,1,-180,-3936,-112
1773541241.592171,23.2,28.1,0,-20,-4444,76
1773541241.6127279,23.2,28.1,0,-20,-4444,76
1773541241.633603,23.2,28.1,0,-28,-4496,-116
1773541241.6541948,23.2,28.1,0,-28,-4496,-116
1773541241.674612,23.2,28.1,0,-28,-4496,-116
1773541241.6950536,23.2,28.1,0,-100,-4300,-192
1773541241.715615,23.2,28.1,0,-100,-4300,-192
1773541241.7363966,23.2,28.1,0,116,-4136,-44
1773541241.7565908,23.2,28.1,0,116,-4136,-44
1773541241.777348,23.2,28.1,0,116,-4136,-44
1773541241.7977023,23.2,28.1,0,120,-4776,176
1773541241.8182864,23.2,28.1,0,120,-4776,176
1773541241.8386269,23.2,28.1,0,384,-5000,-428
1773541241.8593411,23.2,28.1,0,384,-5000,-428
1773541241.8800075,23.2,28.1,0,384,-5000,-428
1773541241.9009917,23.2,28.1,0,372,-5212,-756
1773541241.9212973,23.2,28.1,0,372,-5212,-756
1773541241.9418037,23.2,28.1,0,372,-5212,-756
1773541241.9625566,23.2,28.1,0,284,-5596,-76
1773541241.9835546,23.2,28.1,0,284,-5596,-76
1773541242.0040534,23.2,28.1,0,200,-5608,32
1773541242.0246215,23.2,28.1,0,200,-5608,32
1773541242.045071,23.2,28.1,0,200,-5608,32
1773541242.06559,23.2,28.1,0,88,-4744,384
1773541242.0862372,23.2,28.1,0,88,-4744,384
1773541242.1069074,23.2,28.1,0,100,-4952,244
1773541242.1277285,23.2,28.1,0,100,-4952,244
1773541242.1483054,23.2,28.1,0,100,-4952,244
1773541242.1688094,23.2,28.1,0,-116,-4064,-76
1773541242.1894531,23.2,28.1,0,-116,-4064,-76
1773541242.2098322,23.2,28.1,0,-104,-3900,-608
1773541242.2303483,23.2,28.1,0,-104,-3900,-608
1773541242.251074,23.2,28.1,0,-104,-3900,-608
1773541242.2722752,23.2,28.1,0,-144,-3756,-356
1773541242.292687,23.2,28.1,0,-144,-3756,-356
1773541242.3131554,23.2,28.1,0,-144,-3756,-356
1773541242.3333235,23.2,28.1,0,-280,-3768,-300
1773541242.354318,23.2,28.1,0,-280,-3768,-300
1773541242.3749683,23.2,28.1,0,-568,-3244,256
1773541242.3955147,23.2,28.1,0,-568,-3244,256
1773541242.4168937,23.2,28.1,0,-568,-3244,256
1773541242.4376438,23.2,28.1,0,-504,-3068,-48
1773541242.458394,23.2,28.1,0,-504,-3068,-48
1773541242.4791062,23.2,28.1,0,-612,-2828,336
1773541242.4994206,23.2,28.1,0,-612,-2828,336
1773541242.5200212,23.2,28.1,0,-612,-2828,336
1773541242.540587,23.2,28.1,0,-368,-2516,288
1773541242.5608459,23.2,28.1,0,-368,-2516,288
1773541242.5813885,23.2,28.1,0,-384,-2800,-108
1773541242.6020446,23.2,28.1,0,-384,-2800,-108
1773541242.6226985,23.2,28.1,0,-384,-2800,-108
1773541242.6433208,23.2,28.1,0,-120,-3120,372
1773541242.6640997,23.2,28.1,0,-120,-3120,372
1773541242.6850579,23.2,28.1,0,-120,-3120,372
1773541242.7056484,23.2,28.1,0,-312,-3636,268
1773541242.726354,23.2,28.1,0,-312,-3636,268
1773541242.7468216,23.2,28.1,0,-340,-3664,80
1773541242.7671163,23.2,28.1,0,-340,-3664,80
1773541242.7879815,23.2,28.1,0,-340,-3664,80
1773541242.8087537,23.2,28.1,0,-64,-3996,140
1773541242.829279,23.2,28.1,0,-64,-3996,140
1773541242.8497148,23.2,28.1,0,-100,-4156,-432
1773541242.8708029,23.2,28.1,0,-100,-4156,-432
1773541242.8913944,23.2,28.1,0,-100,-4156,-432
1773541242.9122589,23.2,28.1,1,-44,-4220,24
1773541242.9328635,23.2,28.1,1,-44,-4220,24
1773541242.9532056,23.2,28.1,1,-44,-4220,24
1773541242.973635,23.2,28.1,1,-44,-4220,24
1773541242.9941664,23.2,27.7,1,212,-4680,216
1773541243.014686,23.2,27.7,1,212,-4680,216
1773541243.0350702,23.2,27.7,0,48,-5104,80
1773541243.0562403,23.2,27.7,0,48,-5104,80
1773541243.0768638,23.2,27.7,0,48,-5104,80
1773541243.0972867,23.2,27.7,0,56,-4848,-60
1773541243.1176035,23.2,27.7,0,56,-4848,-60
1773541243.13847,23.2,27.7,0,204,-4956,-292
1773541243.1593938,23.2,27.7,0,204,-4956,-292
1773541243.1804595,23.2,27.7,0,204,-4956,-292
1773541243.201642,23.2,27.7,0,120,-5496,-88
1773541243.22262,23.2,27.7,0,120,-5496,-88
1773541243.2432761,23.2,27.7,0,196,-5552,268
1773541243.264094,23.2,27.7,0,196,-5552,268
1773541243.2847183,23.2,27.7,0,196,-5552,268
1773541243.3051426,23.2,27.7,0,216,-5152,256
1773541243.3257077,23.2,27.7,0,216,-5152,256
1773541243.346496,23.2,27.7,0,96,-4772,596
1773541243.367031,23.2,27.7,0,96,-4772,596
1773541243.3882616,23.2,27.7,0,96,-4772,596
1773541243.4090736,23.2,27.7,0,0,-4728,-180
1773541243.4292886,23.2,27.7,0,0,-4728,-180
1773541243.4500465,23.2,27.7,0,0,-4728,-180
1773541243.4705708,23.2,27.7,0,-104,-4200,-268
1773541243.4913266,23.2,27.7,0,-104,-4200,-268
1773541243.5118067,23.2,27.7,0,-156,-4108,-468
1773541243.532592,23.2,27.7,0,-156,-4108,-468
1773541243.5528178,23.2,27.7,0,-156,-4108,-468
1773541243.573162,23.2,27.7,0,-140,-3360,-492
1773541243.5941224,23.2,27.7,0,-140,-3360,-492
1773541243.6148345,23.2,27.7,0,-528,-3768,404
1773541243.6354427,23.2,27.7,0,-528,-3768,404
1773541243.6559045,23.2,27.7,0,-528,-3768,404
1773541243.6763976,23.2,27.7,1,-472,-2820,60
1773541243.696919,23.2,27.7,1,-472,-2820,60
1773541243.7176049,23.2,27.7,0,-624,-2464,-364
1773541243.738528,23.2,27.7,0,-624,-2464,-364
1773541243.7590907,23.2,27.7,0,-624,-2464,-364
1773541243.7798822,23.2,27.7,0,-520,-2496,672
1773541243.800339,23.2,27.7,0,-520,-2496,672
1773541243.8213873,23.2,27.7,0,-256,-2772,296
1773541243.8419945,23.2,27.7,0,-256,-2772,296
1773541243.8627,23.2,27.7,0,-256,-2772,296
1773541243.8851178,23.2,27.7,0,-180,-2976,116
1773541243.905995,23.2,27.7,0,-180,-2976,116
1773541243.9264994,23.2,27.7,0,-180,-2976,116
1773541243.9470892,23.2,27.7,0,-120,-3280,-196
1773541243.9682877,23.2,27.7,0,-120,-3280,-196
1773541243.988977,23.2,27.7,0,4,-3644,-220
1773541244.0092518,23.2,27.7,0,4,-3644,-220
1773541244.0296283,23.2,27.7,0,4,-3644,-220
1773541244.0497553,23.2,27.7,0,-740,-4380,212
1773541244.0702276,23.2,27.7,0,-740,-4380,212
1773541244.0909004,23.2,27.7,0,-172,-4288,-496
1773541244.1113675,23.2,27.7,0,-172,-4288,-496
1773541244.1320434,23.2,27.7,0,-172,-4288,-496
1773541244.1525548,23.2,27.7,0,52,-4488,56
1773541244.1732357,23.2,27.7,0,52,-4488,56
1773541244.1937053,23.2,27.7,1,16,-4572,124
1773541244.2141962,23.2,27.7,1,16,-4572,124
1773541244.2347093,23.2,27.7,1,16,-4572,124
1773541244.25548,23.2,27.7,0,228,-4580,-380
1773541244.2762256,23.2,27.7,0,228,-4580,-380
1773541244.2969577,23.2,27.7,0,228,-4580,-380
1773541244.3178055,23.2,27.7,0,248,-4772,-32
1773541244.338494,23.2,27.7,0,248,-4772,-32
1773541244.3592598,23.2,27.7,1,340,-5036,-284
1773541244.3795204,23.2,27.7,1,340,-5036,-284
1773541244.400346,23.2,27.7,1,340,-5036,-284
1773541244.421441,23.2,27.7,0,340,-5528,-112
1773541244.4417229,23.2,27.7,0,340,-5528,-112
1773541244.4621098,23.2,27.7,0,168,-5540,-316
1773541244.482627,23.2,27.7,0,168,-5540,-316
1773541244.5033789,23.2,27.7,0,168,-5540,-316
1773541244.5236092,23.2,27.7,0,256,-5160,-228
1773541244.544189,23.2,27.7,0,256,-5160,-228
1773541244.5647998,23.2,27.7,0,96,-5084,-152
1773541244.5852673,23.2,27.7,0,96,-5084,-152
1773541244.606016,23.2,27.7,0,96,-5084,-152
1773541244.6267743,23.2,27.7,0,44,-4740,180
1773541244.6473722,23.2,27.7,0,44,-4740,180
1773541244.6680443,23.2,27.7,0,-200,-4476,-336
1773541244.6886315,23.2,27.7,0,-200,-4476,-336
1773541244.7094836,23.2,27.7,0,-200,-4476,-336
1773541244.73027,23.2,27.7,1,-288,-4144,-492
1773541244.7513428,23.2,27.7,1,-288,-4144,-492
1773541244.7718005,23.2,27.7,1,-288,-4144,-492
1773541244.7921364,23.2,27.7,1,-352,-3968,-228
1773541244.812701,23.2,27.7,1,-352,-3968,-228
1773541244.8330493,23.2,27.7,0,-344,-3732,32
1773541244.8534925,23.2,27.7,0,-344,-3732,32
1773541244.8741658,23.2,27.7,0,-344,-3732,32
1773541244.8949487,23.2,27.7,0,-508,-3520,120
1773541244.9155595,23.2,27.7,0,-508,-3520,120
1773541244.9360197,23.2,27.7,0,-576,-3044,336
1773541244.9570477,23.2,27.7,0,-576,-3044,336
1773541244.9776788,23.2,27.7,0,-576,-3044,336
1773541244.9982755,23.2,27.7,0,-576,-3044,336
1773541245.019121,23.1,27.4,0,-340,-2992,504
1773541245.0397787,23.1,27.4,0,-340,-2992,504
1773541245.0608993,23.1,27.4,0,-340,-2992,504
1773541245.0816412,23.1,27.4,0,-236,-2808,128
1773541245.1022623,23.1,27.4,0,-236,-2808,128
1773541245.1229153,23.1,27.4,0,-96,-2856,44
1773541245.1437206,23.1,27.4,0,-96,-2856,44
1773541245.1642802,23.1,27.4,0,-96,-2856,44
1773541245.1849368,23.1,27.4,0,-256,-3044,536
1773541245.2053664,23.1,27.4,0,-256,-3044,536
1773541245.2258675,23.1,27.4,1,-264,-3336,-24
1773541245.2464983,23.1,27.4,1,-264,-3336,-24
1773541245.2672575,23.1,27.4,1,-264,-3336,-24
1773541245.287608,23.1,27.4,0,-84,-3516,-192
1773541245.308342,23.1,27.4,0,-84,-3516,-192
1773541245.3287408,23.1,27.4,0,-236,-4560,-260
1773541245.349746,23.1,27.4,0,-236,-4560,-260
1773541245.3703804,23.1,27.4,0,-236,-4560,-260
1773541245.3910398,23.1,27.4,0,64,-4392,-288
1773541245.41188,23.1,27.4,0,64,-4392,-288
1773541245.432995,23.1,27.4,0,64,-4392,-288
1773541245.4535193,23.1,27.4,0,388,-5100,-576
1773541245.4738953,23.1,27.4,0,388,-5100,-576
1773541245.4944847,23.1,27.4,1,-344,-5952,-796
1773541245.5152693,23.1,27.4,1,-344,-5952,-796
1773541245.535662,23.1,27.4,1,-344,-5952,-796
1773541245.5561774,23.1,27.4,1,-688,-5640,-460
1773541245.5766926,23.1,27.4,1,-688,-5640,-460
1773541245.5970578,23.1,27.4,0,-316,-5392,1036
1773541245.6175878,23.1,27.4,0,-316,-5392,1036
1773541245.6380737,23.1,27.4,0,-316,-5392,1036
1773541245.658344,23.1,27.4,0,-292,-5164,1172
1773541245.678742,23.1,27.4,0,-292,-5164,1172
1773541245.6991389,23.1,27.4,1,-4,-3688,672
1773541245.719528,23.1,27.4,1,-4,-3688,672
1773541245.7402306,23.1,27.4,1,-4,-3688,672
1773541245.761031,23.1,27.4,0,144,-4012,640
1773541245.7813709,23.1,27.4,0,144,-4012,640
1773541245.802035,23.1,27.4,0,144,-4012,640
1773541245.8228188,23.1,27.4,0,608,-3248,648
1773541245.8434434,23.1,27.4,0,608,-3248,648
1773541245.8642802,23.1,27.4,1,976,-3516,408
1773541245.885005,23.1,27.4,1,976,-3516,408
1773541245.905806,23.1,27.4,1,976,-3516,408
1773541245.926216,23.1,27.4,0,1256,-3352,64
1773541245.9467902,23.1,27.4,0,1256,-3352,64
1773541245.967751,23.1,27.4,0,1404,-3776,-224
1773541245.9883127,23.1,27.4,0,1404,-3776,-224
1773541246.008759,23.1,27.4,0,1404,-3776,-224
1773541246.0292819,23.1,27.4,0,1244,-4132,-12
1773541246.0502098,23.1,27.4,0,1244,-4132,-12
1773541246.0723753,23.1,27.4,0,964,-3756,-540
1773541246.0928204,23.1,27.4,0,964,-3756,-540
1773541246.1136627,23.1,27.4,0,964,-3756,-540
1773541246.1341338,23.1,27.4,0,780,-3692,-1176
1773541246.1549902,23.1,27.4,0,780,-3692,-1176
1773541246.175468,23.1,27.4,0,780,-3692,-1176
1773541246.1963313,23.1,27.4,0,712,-3916,-1476
1773541246.2168696,23.1,27.4,0,712,-3916,-1476
1773541246.237224,23.1,27.4,0,420,-3840,-1204
1773541246.2575512,23.1,27.4,0,420,-3840,-1204
1773541246.278288,23.1,27.4,0,420,-3840,-1204
1773541246.299033,23.1,27.4,0,76,-3976,-1000
1773541246.3200512,23.1,27.4,0,76,-3976,-1000
1773541246.340711,23.1,27.4,0,228,-3832,-572
1773541246.3611212,23.1,27.4,0,228,-3832,-572
1773541246.381942,23.1,27.4,0,228,-3832,-572
1773541246.402544,23.1,27.4,0,40,-4400,-504
1773541246.4233372,23.1,27.4,0,40,-4400,-504
1773541246.4438903,23.1,27.4,0,-88,-4320,-292
1773541246.464452,23.1,27.4,0,-88,-4320,-292
1773541246.4848688,23.1,27.4,0,-88,-4320,-292
1773541246.5057383,23.1,27.4,0,-272,-4628,-412
1773541246.526138,23.1,27.4,0,-272,-4628,-412
1773541246.5467274,23.1,27.4,0,-424,-4404,-12
1773541246.5674655,23.1,27.4,0,-424,-4404,-12
1773541246.587953,23.1,27.4,0,-424,-4404,-12
1773541246.6084926,23.1,27.4,0,-200,-4700,316
1773541246.6291447,23.1,27.4,0,-200,-4700,316
1773541246.650087,23.1,27.4,0,-200,-4700,316
1773541246.6714416,23.1,27.4,0,-108,-4336,464
1773541246.6919715,23.1,27.4,0,-108,-4336,464
1773541246.7127671,23.1,27.4,0,276,-5008,40
1773541246.7333155,23.1,27.4,0,276,-5008,40
1773541246.7538598,23.1,27.4,0,276,-5008,40
1773541246.774482,23.1,27.4,0,-76,-4100,804
1773541246.7948153,23.1,27.4,0,-76,-4100,804
1773541246.8154917,23.1,27.4,0,336,-3536,776
1773541246.835842,23.1,27.4,0,336,-3536,776
1773541246.8564794,23.1,27.4,0,336,-3536,776
1773541246.8769872,23.1,27.4,0,576,-4224,324
1773541246.8974676,23.1,27.4,0,576,-4224,324
1773541246.9178238,23.1,27.4,0,468,-3940,96
1773541246.9386444,23.1,27.4,0,468,-3940,96
1773541246.9589787,23.1,27.4,0,468,-3940,96
1773541246.979406,23.1,27.4,0,468,-4088,84
1773541246.999707,23.1,27.4,0,468,-4088,84
1773541247.0209486,23.1,27.4,0,468,-4088,84
1773541247.0418177,23.1,27.4,0,468,-4088,84
1773541247.062184,23.1,27.0,0,816,-3944,264
1773541247.0829954,23.1,27.0,0,816,-3944,264
1773541247.1036603,23.1,27.0,0,1220,-4392,16
1773541247.1244392,23.1,27.0,0,1220,-4392,16
1773541247.1450527,23.1,27.0,0,1220,-4392,16
1773541247.1654503,23.1,27.0,0,1208,-4164,-216
1773541247.1856759,23.1,27.0,0,1208,-4164,-216
1773541247.2059865,23.1,27.0,0,1208,-4164,-216
1773541247.2265239,23.1,27.0,1,1256,-4264,-320
1773541247.2471817,23.1,27.0,1,1256,-4264,-320
1773541247.2678177,23.1,27.0,0,1044,-4224,-540
1773541247.288519,23.1,27.0,0,1044,-4224,-540
1773541247.3091002,23.1,27.0,0,1044,-4224,-540
1773541247.3294733,23.1,27.0,1,884,-3972,-664
1773541247.351662,23.1,27.0,1,884,-3972,-664
1773541247.372289,23.1,27.0,0,736,-3896,-232
1773541247.392623,23.1,27.0,0,736,-3896,-232
1773541247.4133136,23.1,27.0,0,736,-3896,-232
1773541247.434086,23.1,27.0,0,668,-3932,-812
1773541247.454555,23.1,27.0,0,668,-3932,-812
1773541247.4753182,23.1,27.0,1,648,-3668,-1248
1773541247.4961495,23.1,27.0,1,648,-3668,-1248
1773541247.5165553,23.1,27.0,1,648,-3668,-1248
1773541247.5371096,23.1,27.0,0,524,-3624,-1228
1773541247.5578527,23.1,27.0,0,524,-3624,-1228
1773541247.578497,23.1,27.0,0,404,-3580,-1192
1773541247.5990753,23.1,27.0,0,404,-3580,-1192
1773541247.620047,23.1,27.0,0,404,-3580,-1192
1773541247.6404734,23.1,27.0,0,116,-4304,-1384
1773541247.6611195,23.1,27.0,0,116,-4304,-1384
1773541247.6819322,23.1,27.0,0,116,-4304,-1384
1773541247.702275,23.1,27.0,0,88,-3960,-1156
1773541247.7227437,23.1,27.0,0,88,-3960,-1156
1773541247.7434955,23.1,27.0,0,-220,-4200,-992
1773541247.7640557,23.1,27.0,0,-220,-4200,-992
1773541247.7853677,23.1,27.0,0,-220,-4200,-992
1773541247.805917,23.1,27.0,0,-220,-3644,-1288
1773541247.8265266,23.1,27.0,0,-220,-3644,-1288
1773541247.8470743,23.1,27.0,1,-324,-4240,-948
1773541247.8677683,23.1,27.0,1,-324,-4240,-948
1773541247.888445,23.1,27.0,1,-324,-4240,-948
1773541247.9089262,23.1,27.0,1,-408,-4120,-292
1773541247.929484,23.1,27.0,1,-408,-4120,-292
1773541247.9502342,23.1,27.0,0,-552,-4960,-104
1773541247.9706137,23.1,27.0,0,-552,-4960,-104
1773541247.9911401,23.1,27.0,0,-552,-4960,-104
1773541248.0117064,23.1,27.0,1,-476,-4656,348
1773541248.032258,23.1,27.0,1,-476,-4656,348
1773541248.053164,23.1,27.0,0,-392,-4384,176
1773541248.0737226,23.1,27.0,0,-392,-4384,176
1773541248.094435,23.1,27.0,0,-392,-4384,176
1773541248.1151114,23.1,27.0,1,-108,-4392,104
1773541248.1356642,23.1,27.0,1,-108,-4392,104
1773541248.1563053,23.1,27.0,1,-108,-4392,104
1773541248.1771107,23.1,27.0,0,-316,-4344,64
1773541248.1976445,23.1,27.0,0,-316,-4344,64
1773541248.2183917,23.1,27.0,1,-104,-3948,612
1773541248.2391126,23.1,27.0,1,-104,-3948,612
1773541248.259967,23.1,27.0,1,-104,-3948,612
1773541248.280451,23.1,27.0,0,252,-3996,120
1773541248.3010004,23.1,27.0,0,252,-3996,120
1773541248.3213227,23.1,27.0,0,308,-3796,212
1773541248.3420694,23.1,27.0,0,308,-3796,212
1773541248.3627424,23.1,27.0,0,308,-3796,212
1773541248.3834703,23.1,27.0,0,604,-4248,176
1773541248.4041924,23.1,27.0,0,604,-4248,176
1773541248.424665,23.1,27.0,1,756,-4148,216
1773541248.445324,23.1,27.0,1,756,-4148,216
1773541248.4659731,23.1,27.0,1,756,-4148,216
1773541248.4868374,23.1,27.0,0,928,-4496,-196
1773541248.5070868,23.1,27.0,0,928,-4496,-196
1773541248.5277233,23.1,27.0,0,928,-4496,-196
1773541248.5481024,23.1,27.0,1,908,-3988,-284
1773541248.5689347,23.1,27.0,1,908,-3988,-284
1773541248.5898507,23.1,27.0,0,808,-4076,-576
1773541248.6103127,23.1,27.0,0,808,-4076,-576
1773541248.6307106,23.1,27.0,0,808,-4076,-576
1773541248.651098,23.1,27.0,0,1012,-3972,-648
1773541248.6714826,23.1,27.0,0,1012,-3972,-648
1773541248.6921256,23.1,27.0,0,876,-4088,-752
1773541248.7128046,23.1,27.0,0,876,-4088,-752
1773541248.7334433,23.1,27.0,0,876,-4088,-752
1773541248.7543511,23.1,27.0,1,744,-3568,-708
1773541248.7746282,23.1,27.0,1,744,-3568,-708
1773541248.7948387,23.1,27.0,1,788,-3736,-712
1773541248.815159,23.1,27.0,1,788,-3736,-712
1773541248.8357801,23.1,27.0,1,788,-3736,-712
1773541248.8562233,23.1,27.0,1,592,-3660,-1424
1773541248.877222,23.1,27.0,1,592,-3660,-1424
1773541248.8977141,23.1,27.0,1,592,-3660,-1424
1773541248.9185784,23.1,27.0,1,500,-3276,-1524
1773541248.938889,23.1,27.0,1,500,-3276,-1524
1773541248.9593234,23.1,27.0,0,236,-4188,-1224
1773541248.9795058,23.1,27.0,0,236,-4188,-1224
1773541249.0001097,23.1,27.0,0,236,-4188,-1224
1773541249.0208979,23.1,27.0,0,-208,-4720,-920
1773541249.0415523,23.1,27.0,0,-208,-4720,-920
1773541249.0622516,23.1,27.0,0,-208,-4720,-920
1773541249.0829248,23.1,27.0,0,-208,-4720,-920
1773541249.1042228,23.1,26.5,1,-376,-3984,-784
1773541249.1244352,23.1,26.5,1,-376,-3984,-784
1773541249.1449733,23.1,26.5,1,-348,-4260,-732
1773541249.1655493,23.1,26.5,1,-348,-4260,-732
1773541249.186212,23.1,26.5,1,-348,-4260,-732
1773541249.2066526,23.1,26.5,0,-696,-3960,-484
1773541249.2270727,23.1,26.5,0,-696,-3960,-484
1773541249.247395,23.1,26.5,0,-616,-3792,-404
1773541249.2682757,23.1,26.5,0,-616,-3792,-404
1773541249.2891395,23.1,26.5,0,-616,-3792,-404
1773541249.3097787,23.1,26.5,1,-900,-4348,-4
1773541249.330285,23.1,26.5,1,-900,-4348,-4
1773541249.3506427,23.1,26.5,1,-460,-4596,172
1773541249.371257,23.1,26.5,1,-460,-4596,172
1773541249.3919148,23.1,26.5,1,-460,-4596,172
1773541249.4126801,23.1,26.5,0,-492,-4308,300
1773541249.4329085,23.1,26.5,0,-492,-4308,300
1773541249.4536514,23.1,26.5,0,-492,-4308,300
1773541249.473946,23.1,26.5,0,-256,-4432,672
1773541249.4944158,23.1,26.5,0,-256,-4432,672
1773541249.515125,23.1,26.5,1,-292,-4172,160
1773541249.535911,23.1,26.5,1,-292,-4172,160
1773541249.5562053,23.1,26.5,1,-292,-4172,160
1773541249.5767326,23.1,26.5,0,-80,-4032,240
1773541249.597533,23.1,26.5,0,-80,-4032,240
1773541249.6178138,23.1,26.5,0,76,-4556,296
1773541249.6382666,23.1,26.5,0,76,-4556,296
1773541249.659052,23.1,26.5,0,76,-4556,296
1773541249.6793547,23.1,26.5,1,384,-4236,332
1773541249.6999245,23.1,26.5,1,384,-4236,332
1773541249.720304,23.1,26.5,1,276,-4260,-104
1773541249.7404864,23.1,26.5,1,276,-4260,-104
1773541249.7608213,23.1,26.5,1,276,-4260,-104
1773541249.781305,23.1,26.5,1,592,-3984,-48
1773541249.8022423,23.1,26.5,1,592,-3984,-48
1773541249.8227632,23.1,26.5,1,592,-3984,-48
1773541249.8433206,23.1,26.5,0,496,-4176,-144
1773541249.86371,23.1,26.5,0,496,-4176,-144
1773541249.8842652,23.1,26.5,1,532,-3904,-228
1773541249.9052627,23.1,26.5,1,532,-3904,-228
1773541249.9258702,23.1,26.5,1,532,-3904,-228
1773541249.946132,23.1,26.5,1,488,-4044,-132
1773541249.9665966,23.1,26.5,1,488,-4044,-132
1773541249.9871316,23.1,26.5,1,456,-3920,-468
1773541250.0075104,23.1,26.5,1,456,-3920,-468
1773541250.0283093,23.1,26.5,1,456,-3920,-468
1773541250.0491633,23.1,26.5,0,568,-4020,-476
1773541250.0695732,23.1,26.5,0,568,-4020,-476
1773541250.0900674,23.1,26.5,1,356,-4112,-796
1773541250.1104512,23.1,26.5,1,356,-4112,-796
1773541250.1308239,23.1,26.5,1,356,-4112,-796
1773541250.1510751,23.1,26.5,1,96,-3764,-688
1773541250.1715899,23.1,26.5,1,96,-3764,-688
1773541250.1923466,23.1,26.5,1,96,-3764,-688
1773541250.2126582,23.1,26.5,0,348,-3720,-968
1773541250.23294,23.1,26.5,0,348,-3720,-968
1773541250.2536519,23.1,26.5,0,248,-4084,-1380
1773541250.2742608,23.1,26.5,0,248,-4084,-1380
1773541250.2951972,23.1,26.5,0,248,-4084,-1380
1773541250.3156083,23.1,26.5,1,324,-3764,-1316
1773541250.3359559,23.1,26.5,1,324,-3764,-1316
1773541250.356451,23.1,26.5,0,-72,-3840,-816
1773541250.377161,23.1,26.5,0,-72,-3840,-816
1773541250.3974013,23.1,26.5,0,-72,-3840,-816
1773541250.4177477,23.1,26.5,0,-296,-3884,-344
1773541250.438167,23.1,26.5,0,-296,-3884,-344
1773541250.458611,23.1,26.5,0,-296,-3884,-344
1773541250.479353,23.1,26.5,1,-316,-3724,-568
1773541250.5001292,23.1,26.5,1,-316,-3724,-568
1773541250.521918,23.1,26.5,0,-24,-4160,-576
1773541250.542727,23.1,26.5,0,-24,-4160,-576
1773541250.5635087,23.1,26.5,0,-24,-4160,-576
1773541250.5855246,23.1,26.5,1,268,-4720,-488
1773541250.6062937,23.1,26.5,1,268,-4720,-488
1773541250.6268196,23.1,26.5,1,324,-4720,-640
1773541250.6476276,23.1,26.5,1,324,-4720,-640
1773541250.6681902,23.1,26.5,1,324,-4720,-640
1773541250.689134,23.1,26.5,1,-160,-4244,-532
1773541250.7097938,23.1,26.5,1,-160,-4244,-532
1773541250.7303085,23.1,26.5,1,-344,-3664,-788
1773541250.7508142,23.1,26.5,1,-344,-3664,-788
1773541250.771181,23.1,26.5,1,-344,-3664,-788
1773541250.791491,23.1,26.5,0,-632,-4516,-428
1773541250.8120449,23.1,26.5,0,-632,-4516,-428
1773541250.832307,23.1,26.5,0,-1068,-4288,-644
1773541250.8528996,23.1,26.5,0,-1068,-4288,-644
1773541250.8732688,23.1,26.5,0,-1068,-4288,-644
1773541250.8942273,23.1,26.5,1,-1168,-3612,-624
1773541250.914911,23.1,26.5,1,-1168,-3612,-624
1773541250.935613,23.1,26.5,1,-1168,-3612,-624
1773541250.956465,23.1,26.5,0,-1124,-4788,-644
1773541250.976987,23.1,26.5,0,-1124,-4788,-644
1773541250.997461,23.1,26.5,0,-836,-5576,-192
1773541251.0182312,23.1,26.5,0,-836,-5576,-192
1773541251.0387084,23.1,26.5,0,-836,-5576,-192
1773541251.0596092,23.1,26.5,0,-984,-5336,-160
1773541251.0798655,23.1,26.5,0,-984,-5336,-160
1773541251.1006174,23.1,26.5,0,-984,-5336,-160
1773541251.1210093,23.1,26.5,0,-984,-5336,-160
1773541251.1414785,23.1,26.2,0,-320,-5052,-1320
1773541251.1620166,23.1,26.2,0,-320,-5052,-1320
1773541251.183015,23.1,26.2,0,-520,-3652,-1580
1773541251.2042937,23.1,26.2,0,-520,-3652,-1580
1773541251.22502,23.1,26.2,0,-520,-3652,-1580
1773541251.2456162,23.1,26.2,0,-756,-4136,-1496
1773541251.2661395,23.1,26.2,0,-756,-4136,-1496
1773541251.286863,23.1,26.2,0,-1384,-3896,-1064
1773541251.3163745,23.1,26.2,0,-1384,-3896,-1064
1773541251.3396244,23.1,26.2,0,-1404,-3576,-488
1773541251.3613489,23.1,26.2,0,-1404,-3576,-488
1773541251.3817723,23.1,26.2,0,-1404,-3576,-488
1773541251.4025455,23.1,26.2,0,-1380,-3288,-368
1773541251.423605,23.1,26.2,0,-1380,-3288,-368
1773541251.444155,23.1,26.2,0,-1208,-1780,204
1773541251.4647229,23.1,26.2,0,-1208,-1780,204
1773541251.4851372,23.1,26.2,0,-1208,-1780,204
1773541251.5063353,23.1,26.2,0,-1016,-2756,144
1773541251.5265634,23.1,26.2,0,-1016,-2756,144
1773541251.547239,23.1,26.2,0,-840,-2508,-116
1773541251.5674825,23.1,26.2,0,-840,-2508,-116
1773541251.5882683,23.1,26.2,0,-840,-2508,-116
1773541251.6089058,23.1,26.2,1,-992,-2692,-128
1773541251.6293294,23.1,26.2,1,-992,-2692,-128
1773541251.6509204,23.1,26.2,1,-992,-2692,-128
1773541251.6715364,23.1,26.2,1,-544,-3272,-372
1773541251.692251,23.1,26.2,1,-544,-3272,-372
1773541251.7129297,23.1,26.2,1,-340,-3340,-484
1773541251.73326,23.1,26.2,1,-340,-3340,-484
1773541251.7538888,23.1,26.2,1,-340,-3340,-484
1773541251.7744977,23.1,26.2,1,-248,-4032,-708
1773541251.7951202,23.1,26.2,1,-248,-4032,-708
1773541251.8179173,23.1,26.2,1,-112,-4772,-624
1773541251.8382006,23.1,26.2,1,-112,-4772,-624
1773541251.8584552,23.1,26.2,1,-112,-4772,-624
1773541251.879299,23.1,26.2,1,200,-4948,-824
1773541251.9026387,23.1,26.2,1,200,-4948,-824
1773541251.9230378,23.1,26.2,1,356,-5092,-552
1773541251.9437752,23.1,26.2,1,356,-5092,-552
1773541251.9642344,23.1,26.2,1,356,-5092,-552
1773541251.984855,23.1,26.2,1,508,-4936,-688
1773541252.0055025,23.1,26.2,1,508,-4936,-688
1773541252.026022,23.1,26.2,0,404,-5732,-648
1773541252.0464563,23.1,26.2,0,404,-5732,-648
1773541252.067054,23.1,26.2,0,404,-5732,-648
1773541252.088038,23.1,26.2,0,440,-5352,-484
1773541252.1087945,23.1,26.2,0,440,-5352,-484
1773541252.129666,23.1,26.2,0,336,-5100,-1000
1773541252.1500695,23.1,26.2,0,336,-5100,-1000
1773541252.1707015,23.1,26.2,0,336,-5100,-1000
1773541252.191778,23.1,26.2,0,444,-3600,-1264
1773541252.212094,23.1,26.2,0,444,-3600,-1264
1773541252.2333212,23.1,26.2,0,444,-3600,-1264
1773541252.2582824,23.1,26.2,0,504,-3860,-976
1773541252.279076,23.1,26.2,0,504,-3860,-976
1773541252.2998493,23.1,26.2,0,624,-3560,-540
1773541252.3201022,23.1,26.2,0,624,-3560,-540
1773541252.3404005,23.1,26.2,0,844,-3284,-628
1773541252.3611739,23.1,26.2,0,844,-3284,-628
1773541252.3816338,23.1,26.2,0,844,-3284,-628
1773541252.4024544,23.1,26.2,1,692,-3276,-676
1773541252.422933,23.1,26.2,1,692,-3276,-676
1773541252.4436665,23.1,26.2,1,692,-3276,-676
1773541252.464347,23.1,26.2,1,476,-2756,-488
1773541252.4849715,23.1,26.2,1,476,-2756,-488
1773541252.5056093,23.1,26.2,0,80,-3200,-684
1773541252.5262961,23.1,26.2,0,80,-3200,-684
1773541252.54662,23.1,26.2,0,80,-3200,-684
1773541252.567348,23.1,26.2,1,756,-3452,124
1773541252.5880587,23.1,26.2,1,756,-3452,124
1773541252.6087797,23.1,26.2,1,176,-4960,-940
1773541252.629468,23.1,26.2,1,176,-4960,-940
1773541252.6501412,23.1,26.2,1,176,-4960,-940
1773541252.6711876,23.1,26.2,0,384,-5460,-1268
1773541252.6919234,23.1,26.2,0,384,-5460,-1268
1773541252.712235,23.1,26.2,0,752,-5596,-1584
1773541252.7329702,23.1,26.2,0,752,-5596,-1584
1773541252.7539086,23.1,26.2,0,752,-5596,-1584
1773541252.7742937,23.1,26.2,1,672,-4976,-1444
1773541252.7947807,23.1,26.2,1,672,-4976,-1444
1773541252.8153095,23.1,26.2,1,672,-4976,-1444
1773541252.8359764,23.1,26.2,0,-216,-5508,-964
1773541252.8562896,23.1,26.2,0,-216,-5508,-964
1773541252.8768907,23.1,26.2,0,-388,-4416,-1528
1773541252.897436,23.1,26.2,0,-388,-4416,-1528
1773541252.9177783,23.1,26.2,0,-388,-4416,-1528
1773541252.9382277,23.1,26.2,1,-720,-3596,-1496
1773541252.9589753,23.1,26.2,1,-720,-3596,-1496
1773541252.9799204,23.1,26.2,1,-632,-4164,-1296
1773541253.0006483,23.1,26.2,1,-632,-4164,-1296
1773541253.0219529,23.1,26.2,1,-632,-4164,-1296
1773541253.04294,23.1,26.2,0,-472,-3284,-772
1773541253.0637438,23.1,26.2,0,-472,-3284,-772
1773541253.0847,23.1,26.2,0,-572,-3016,-560
1773541253.1050842,23.1,26.2,0,-572,-3016,-560
1773541253.1254861,23.1,26.2,0,-572,-3016,-560
1773541253.1464617,23.1,26.2,0,-572,-3016,-560
1773541253.1675618,23.0,25.9,0,-232,-2564,-348
1773541253.1880631,23.0,25.9,0,-232,-2564,-348
1773541253.2084005,23.0,25.9,0,-232,-2564,-348
1773541253.2292213,23.0,25.9,1,-164,-3052,-620
1773541253.2506063,23.0,25.9,1,-164,-3052,-620
1773541253.2710285,23.0,25.9,1,-108,-3080,-1088
1773541253.2914934,23.0,25.9,1,-108,-3080,-1088
1773541253.3123367,23.0,25.9,1,-108,-3080,-1088
1773541253.3331757,23.0,25.9,0,284,-3376,-1348
1773541253.3540337,23.0,25.9,0,284,-3376,-1348
1773541253.3746636,23.0,25.9,0,-20,-2812,-1084
1773541253.3958166,23.0,25.9,0,-20,-2812,-1084
1773541253.4163864,23.0,25.9,0,-20,-2812,-1084
1773541253.437435,23.0,25.9,0,-1368,-4848,-452
1773541253.4582167,23.0,25.9,0,-1368,-4848,-452
1773541253.479068,23.0,25.9,1,-1332,-4692,-116
1773541253.4995685,23.0,25.9,1,-1332,-4692,-116
1773541253.52017,23.0,25.9,1,-1332,-4692,-116
1773541253.54088,23.0,25.9,0,-1440,-6360,-120
1773541253.5616074,23.0,25.9,0,-1440,-6360,-120
1773541253.583299,23.0,25.9,0,-1440,-6360,-120
1773541253.6039295,23.0,25.9,1,-1168,-4600,-76
1773541253.62465,23.0,25.9,1,-1168,-4600,-76
1773541253.6458066,23.0,25.9,0,-900,-4860,-376
1773541253.6663117,23.0,25.9,0,-900,-4860,-376
1773541253.68695,23.0,25.9,0,-900,-4860,-376
1773541253.7075057,23.0,25.9,1,-668,-4140,-556
1773541253.7278795,23.0,25.9,1,-668,-4140,-556
1773541253.7484004,23.0,25.9,0,-224,-4080,-960
1773541253.7692242,23.0,25.9,0,-224,-4080,-960
1773541253.7897828,23.0,25.9,0,-224,-4080,-960
1773541253.8108063,23.0,25.9,1,-292,-5172,-852
1773541253.8317213,23.0,25.9,1,-292,-5172,-852
1773541253.8528187,23.0,25.9,0,-804,-5948,560
1773541253.8736093,23.0,25.9,0,-804,-5948,560
1773541253.8942778,23.0,25.9,0,-804,-5948,560
1773541253.9153252,23.0,25.9,1,-656,-6384,1316
1773541253.936238,23.0,25.9,1,-656,-6384,1316
1773541253.9568036,23.0,25.9,0,-584,-4600,-20
1773541253.9776723,23.0,25.9,0,-584,-4600,-20
1773541253.9986842,23.0,25.9,0,-584,-4600,-20
1773541254.0196228,23.0,25.9,0,-80,-2776,-1112
1773541254.0403628,23.0,25.9,0,-80,-2776,-1112
1773541254.0607877,23.0,25.9,1,168,-1700,-1912
1773541254.0815012,23.0,25.9,1,168,-1700,-1912
1773541254.1031187,23.0,25.9,1,168,-1700,-1912
1773541254.1238909,23.0,25.9,1,596,-2960,-2304
1773541254.1446311,23.0,25.9,1,596,-2960,-2304
1773541254.1653419,23.0,25.9,1,596,-2960,-2304
1773541254.1861608,23.0,25.9,1,356,-2280,-1596
1773541254.2069106,23.0,25.9,1,356,-2280,-1596
1773541254.2275887,23.0,25.9,0,340,-2788,-808
1773541254.2482235,23.0,25.9,0,340,-2788,-808
1773541254.2686567,23.0,25.9,0,340,-2788,-808
1773541254.2893028,23.0,25.9,1,-196,-3856,-132
1773541254.3099008,23.0,25.9,1,-196,-3856,-132
1773541254.3305118,23.0,25.9,1,-136,-4088,396
1773541254.3512259,23.0,25.9,1,-136,-4088,396
1773541254.3723218,23.0,25.9,1,-136,-4088,396
1773541254.39283,23.0,25.9,1,88,-4784,392
1773541254.413731,23.0,25.9,1,88,-4784,392
1773541254.4341934,23.0,25.9,1,-228,-4332,0
1773541254.4551442,23.0,25.9,1,-228,-4332,0
1773541254.4757833,23.0,25.9,1,-228,-4332,0
1773541254.496698,23.0,25.9,1,104,-4044,136
1773541254.5170846,23.0,25.9,1,104,-4044,136
1773541254.5378478,23.0,25.9,0,-40,-5512,76
1773541254.5586443,23.0,25.9,0,-40,-5512,76
1773541254.5795567,23.0,25.9,0,-40,-5512,76
1773541254.5999055,23.0,25.9,1,-148,-4436,32
1773541254.620328,23.0,25.9,1,-148,-4436,32
1773541254.6405585,23.0,25.9,1,-148,-4436,32
1773541254.6612468,23.0,25.9,1,20,-4832,-132
1773541254.6817274,23.0,25.9,1,20,-4832,-132
1773541254.7022448,23.0,25.9,1,-80,-4064,-508
1773541254.7230685,23.0,25.9,1,-80,-4064,-508
1773541254.7438154,23.0,25.9,1,-80,-4064,-508
1773541254.7644484,23.0,25.9,0,152,-4272,-636
1773541254.7849386,23.0,25.9,0,152,-4272,-636
1773541254.805429,23.0,25.9,1,88,-4140,-536
1773541254.8260043,23.0,25.9,1,88,-4140,-536
1773541254.846754,23.0,25.9,1,88,-4140,-536
1773541254.8673284,23.0,25.9,0,92,-3936,-720
1773541254.8877325,23.0,25.9,0,92,-3936,-720
1773541254.908399,23.0,25.9,1,92,-4248,-704
1773541254.9290855,23.0,25.9,1,92,-4248,-704
1773541254.9494839,23.0,25.9,1,92,-4248,-704
1773541254.9701068,23.0,25.9,1,228,-3924,-884
1773541254.9906669,23.0,25.9,1,228,-3924,-884
1773541255.0112529,23.0,25.9,1,228,-3924,-884
1773541255.0320902,23.0,25.9,0,92,-3992,-784
1773541255.0524952,23.0,25.9,0,92,-3992,-784
1773541255.0730884,23.0,25.9,1,84,-4248,-464
1773541255.0941575,23.0,25.9,1,84,-4248,-464
1773541255.1148398,23.0,25.9,1,84,-4248,-464
1773541255.1355295,23.0,25.9,1,-240,-4516,-404
1773541255.1561916,23.0,25.9,1,-240,-4516,-404
1773541255.1769502,23.0,25.9,1,-240,-4516,-404
1773541255.1973586,23.0,25.6,0,-608,-6248,4968
1773541255.2181857,23.0,25.6,0,-608,-6248,4968
1773541255.2386436,23.0,25.6,0,-608,-6248,4968
1773541255.2591572,23.0,25.6,0,592,-7084,1916
1773541255.27986,23.0,25.6,0,592,-7084,1916
1773541255.3003652,23.0,25.6,0,592,-7084,1916
1773541255.3218682,23.0,25.6,0,1076,-2392,-1276
1773541255.342095,23.0,25.6,0,1076,-2392,-1276
1773541255.3630626,23.0,25.6,0,1456,-3880,-4088
1773541255.383626,23.0,25.6,0,1456,-3880,-4088
1773541255.4041314,23.0,25.6,0,1456,-3880,-4088
1773541255.424528,23.0,25.6,1,996,-2432,-3160
1773541255.4450424,23.0,25.6,1,996,-2432,-3160
1773541255.4658186,23.0,25.6,1,592,-2612,-1572
1773541255.4860585,23.0,25.6,1,592,-2612,-1572
1773541255.506805,23.0,25.6,1,592,-2612,-1572
1773541255.5275931,23.0,25.6,0,292,-3016,-1028
1773541255.5481534,23.0,25.6,0,292,-3016,-1028
1773541255.568846,23.0,25.6,1,176,-3352,-688
1773541255.5894322,23.0,25.6,1,176,-3352,-688
1773541255.6096838,23.0,25.6,1,176,-3352,-688
1773541255.6304665,23.0,25.6,1,-52,-4044,-404
1773541255.6515155,23.0,25.6,1,-52,-4044,-404
1773541255.672747,23.0,25.6,0,-168,-4544,52
1773541255.693433,23.0,25.6,0,-168,-4544,52
1773541255.7141232,23.0,25.6,0,-168,-4544,52
1773541255.7346797,23.0,25.6,0,-100,-4292,-108
1773541255.7556505,23.0,25.6,0,-100,-4292,-108
1773541255.7761958,23.0,25.6,0,-100,-4292,-108
1773541255.7965508,23.0,25.6,1,-56,-4572,-84
1773541255.8169,23.0,25.6,1,-56,-4572,-84
1773541255.8377852,23.0,25.6,1,68,-4568,156
1773541255.8581383,23.0,25.6,1,68,-4568,156
1773541255.878487,23.0,25.6,1,68,-4568,156
1773541255.8989272,23.0,25.6,1,-72,-4436,-80
1773541255.9196405,23.0,25.6,1,-72,-4436,-80
1773541255.9402792,23.0,25.6,1,-52,-4244,-280
1773541255.9608035,23.0,25.6,1,-52,-4244,-280
1773541255.981696,23.0,25.6,1,-52,-4244,-280
1773541256.0023491,23.0,25.6,1,88,-3856,-572
1773541256.0229602,23.0,25.6,1,88,-3856,-572
1773541256.043385,23.0,25.6,1,24,-4292,-532
1773541256.0637603,23.0,25.6,1,24,-4292,-532
1773541256.0846038,23.0,25.6,1,24,-4292,-532
1773541256.1051428,23.0,25.6,1,16,-4260,-404
1773541256.1256125,23.0,25.6,1,16,-4260,-404
1773541256.1460795,23.0,25.6,1,16,-4260,-404
1773541256.1677709,23.0,25.6,1,20,-4104,-548
1773541256.188754,23.0,25.6,1,20,-4104,-548
1773541256.2090938,23.0,25.6,1,24,-4080,-836
1773541256.2298195,23.0,25.6,1,24,-4080,-836
1773541256.2503622,23.0,25.6,1,24,-4080,-836
1773541256.2710903,23.0,25.6,1,72,-4180,-916
1773541256.2918115,23.0,25.6,1,72,-4180,-916
1773541256.3126671,23.0,25.6,1,88,-4088,-788
1773541256.3337102,23.0,25.6,1,88,-4088,-788
1773541256.3540163,23.0,25.6,1,88,-4088,-788
1773541256.3748434,23.0,25.6,0,124,-4188,-804
1773541256.3953607,23.0,25.6,0,124,-4188,-804
1773541256.4160962,23.0,25.6,1,24,-4016,-692
1773541256.436935,23.0,25.6,1,24,-4016,-692
1773541256.4577346,23.0,25.6,1,24,-4016,-692
1773541256.478395,23.0,25.6,1,12,-4000,-972
1773541256.4989443,23.0,25.6,1,12,-4000,-972
1773541256.5196726,23.0,25.6,1,-120,-3976,-976
1773541256.5399086,23.0,25.6,1,-120,-3976,-976
1773541256.560683,23.0,25.6,1,-120,-3976,-976
1773541256.5812926,23.0,25.6,0,-380,-5096,812
1773541256.602012,23.0,25.6,0,-380,-5096,812
1773541256.6231391,23.0,25.6,0,-380,-5096,812
1773541256.6440847,23.0,25.6,1,-624,-6416,2900
1773541256.6647525,23.0,25.6,1,-624,-6416,2900
1773541256.6849651,23.0,25.6,1,36,-5016,2276
1773541256.705789,23.0,25.6,1,36,-5016,2276
1773541256.7263718,23.0,25.6,1,36,-5016,2276
1773541256.746889,23.0,25.6,0,1176,-3708,-608
1773541256.7675138,23.0,25.6,0,1176,-3708,-608
1773541256.7883,23.0,25.6,0,1236,-3668,-2864
1773541256.8089933,23.0,25.6,0,1236,-3668,-2864
1773541256.8293424,23.0,25.6,0,1236,-3668,-2864
1773541256.8504562,23.0,25.6,1,1180,-2700,-2820
1773541256.8718092,23.0,25.6,1,1180,-2700,-2820
1773541256.8922932,23.0,25.6,0,568,-3564,-2196
1773541256.9143622,23.0,25.6,0,568,-3564,-2196
1773541256.9350412,23.0,25.6,0,568,-3564,-2196
1773541256.9557242,23.0,25.6,1,404,-3028,-1244
1773541256.976573,23.0,25.6,1,404,-3028,-1244
1773541256.9972556,23.0,25.6,1,32,-4180,-320
1773541257.0176399,23.0,25.6,1,32,-4180,-320
1773541257.0382335,23.0,25.6,1,32,-4180,-320
1773541257.0587187,23.0,25.6,1,-116,-4216,8
1773541257.0792422,23.0,25.6,1,-116,-4216,8
1773541257.0996852,23.0,25.6,1,-116,-4216,8
1773541257.120189,23.0,25.6,1,-288,-4184,-140
1773541257.1410315,23.0,25.6,1,-288,-4184,-140
1773541257.1613839,23.0,25.6,1,-92,-4272,40
1773541257.1819584,23.0,25.6,1,-92,-4272,40
1773541257.2024243,23.0,25.6,1,-92,-4272,40
1773541257.222931,23.0,25.6,1,-92,-4272,40
1773541257.243316,23.0,25.2,0,-32,-4120,-60
1773541257.2644317,23.0,25.2,0,-32,-4120,-60
1773541257.2850196,23.0,25.2,0,-32,-4120,-60
1773541257.3062224,23.0,25.2,1,-4,-4112,48
1773541257.3269305,23.0,25.2,1,-4,-4112,48
1773541257.3479416,23.0,25.2,1,-148,-4300,44
1773541257.3688142,23.0,25.2,1,-148,-4300,44
1773541257.389141,23.0,25.2,1,-148,-4300,44
1773541257.4095466,23.0,25.2,0,56,-4184,-116
1773541257.430204,23.0,25.2,0,56,-4184,-116
1773541257.450788,23.0,25.2,1,-56,-3944,-188
1773541257.4717546,23.0,25.2,1,-56,-3944,-188
1773541257.4921927,23.0,25.2,1,-56,-3944,-188
1773541257.5126343,23.0,25.2,1,100,-4404,-256
1773541257.5329952,23.0,25.2,1,100,-4404,-256
1773541257.5537596,23.0,25.2,0,128,-4116,-448
1773541257.5742738,23.0,25.2,0,128,-4116,-448
1773541257.5945313,23.0,25.2,0,128,-4116,-448
1773541257.6150832,23.0,25.2,1,-16,-4284,-652
1773541257.635791,23.0,25.2,1,-16,-4284,-652
1773541257.6564095,23.0,25.2,1,8,-3820,-484
1773541257.6769624,23.0,25.2,1,8,-3820,-484
1773541257.6975522,23.0,25.2,1,8,-3820,-484
1773541257.717942,23.0,25.2,0,28,-4132,-576
1773541257.738489,23.0,25.2,0,28,-4132,-576
1773541257.7589474,23.0,25.2,0,28,-4132,-576
1773541257.7793121,23.0,25.2,1,20,-4216,-584
1773541257.799694,23.0,25.2,1,20,-4216,-584
1773541257.8201854,23.0,25.2,1,0,-4176,-544
1773541257.8406155,23.0,25.2,1,0,-4176,-544
1773541257.861402,23.0,25.2,1,0,-4176,-544
1773541257.8826754,23.0,25.2,1,52,-4156,-556
1773541257.9034786,23.0,25.2,1,52,-4156,-556
1773541257.924285,23.0,25.2,1,60,-4180,-632
1773541257.9450755,23.0,25.2,1,60,-4180,-632
1773541257.9658098,23.0,25.2,1,60,-4180,-632
1773541257.9868915,23.0,25.2,1,24,-4128,-612
1773541258.0072389,23.0,25.2,1,24,-4128,-612
1773541258.0277126,23.0,25.2,0,-172,-3988,-320
1773541258.0483003,23.0,25.2,0,-172,-3988,-320
1773541258.0690162,23.0,25.2,0,-172,-3988,-320
1773541258.0893998,23.0,25.2,1,-632,-5512,2904
1773541258.1100864,23.0,25.2,1,-632,-5512,2904
1773541258.1306033,23.0,25.2,1,-632,-5512,2904
1773541258.1510098,23.0,25.2,1,-308,-6352,2980
1773541258.1718836,23.0,25.2,1,-308,-6352,2980
1773541258.192746,23.0,25.2,0,856,-4556,2340
1773541258.2131248,23.0,25.2,0,856,-4556,2340
1773541258.2337384,23.0,25.2,0,856,-4556,2340
1773541258.2541604,23.0,25.2,0,1652,-3180,-2736
1773541258.2748692,23.0,25.2,0,1652,-3180,-2736
1773541258.2955513,23.0,25.2,1,1396,-3752,-3820
1773541258.3189096,23.0,25.2,1,1396,-3752,-3820
1773541258.3393962,23.0,25.2,1,1396,-3752,-3820
1773541258.3602097,23.0,25.2,0,872,-2896,-2596
1773541258.381126,23.0,25.2,0,872,-2896,-2596
1773541258.4016685,23.0,25.2,0,256,-3208,-1176
1773541258.422408,23.0,25.2,0,256,-3208,-1176
1773541258.442853,23.0,25.2,0,256,-3208,-1176
1773541258.4634466,23.0,25.2,0,324,-3636,-532
1773541258.4837968,23.0,25.2,0,324,-3636,-532
1773541258.5048394,23.0,25.2,1,-16,-4492,152
1773541258.5258155,23.0,25.2,1,-16,-4492,152
1773541258.5466623,23.0,25.2,1,-16,-4492,152
1773541258.56709,23.0,25.2,1,-268,-4188,0
1773541258.587627,23.0,25.2,1,-268,-4188,0
1773541258.6082983,23.0,25.2,1,-236,-4176,80
1773541258.6290221,23.0,25.2,1,-236,-4176,80
1773541258.6500611,23.0,25.2,1,-236,-4176,80
1773541258.6708078,23.0,25.2,1,-264,-4088,100
1773541258.6914463,23.0,25.2,1,-264,-4088,100
1773541258.712379,23.0,25.2,1,-264,-4088,100
1773541258.7338047,23.0,25.2,1,-260,-4012,184
1773541258.754344,23.0,25.2,1,-260,-4012,184
1773541258.7749078,23.0,25.2,1,-216,-4256,0
1773541258.79591,23.0,25.2,1,-216,-4256,0
1773541258.8164022,23.0,25.2,1,-216,-4256,0
1773541258.836854,23.0,25.2,1,-68,-4060,140
1773541258.8577676,23.0,25.2,1,-68,-4060,140
1773541258.8785708,23.0,25.2,1,-116,-4264,40
1773541258.899216,23.0,25.2,1,-116,-4264,40
1773541258.9197304,23.0,25.2,1,-116,-4264,40
1773541258.9416282,23.0,25.2,1,-240,-4192,-412
1773541258.9622095,23.0,25.2,1,-240,-4192,-412
1773541258.9828408,23.0,25.2,1,-52,-4188,-388
1773541259.004865,23.0,25.2,1,-52,-4188,-388
1773541259.025362,23.0,25.2,1,-52,-4188,-388
1773541259.0462348,23.0,25.2,1,-60,-4340,-644
1773541259.0691593,23.0,25.2,1,-60,-4340,-644
1773541259.089945,23.0,25.2,1,104,-4104,-384
1773541259.1106524,23.0,25.2,1,104,-4104,-384
1773541259.1313202,23.0,25.2,1,104,-4104,-384
1773541259.1515973,23.0,25.2,1,-64,-4288,-644
1773541259.1718752,23.0,25.2,1,-64,-4288,-644
1773541259.192425,23.0,25.2,1,72,-3968,-536
1773541259.2127838,23.0,25.2,1,72,-3968,-536
1773541259.2332432,23.0,25.2,1,72,-3968,-536
1773541259.2540739,23.0,25.2,1,72,-3968,-536
1773541259.2744212,23.0,24.9,1,-4,-3948,-672
1773541259.294881,23.0,24.9,1,-4,-3948,-672
1773541259.315556,23.0,24.9,1,-4,-3948,-672
1773541259.3370512,23.0,24.9,1,-28,-4000,-692
1773541259.3575377,23.0,24.9,1,-28,-4000,-692
1773541259.3781283,23.0,24.9,1,-16,-4080,-600
1773541259.3985715,23.0,24.9,1,-16,-4080,-600
1773541259.4191983,23.0,24.9,1,-16,-4080,-600
1773541259.439638,23.0,24.9,1,-20,-4124,-664
1773541259.4600768,23.0,24.9,1,-20,-4124,-664
1773541259.4804745,23.0,24.9,1,-24,-4112,-672
1773541259.5011804,23.0,24.9,1,-24,-4112,-672
1773541259.5219488,23.0,24.9,1,-24,-4112,-672
1773541259.5425897,23.0,24.9,1,16,-4060,-732
1773541259.5630977,23.0,24.9,1,16,-4060,-732
1773541259.583446,23.0,24.9,1,16,-4060,-732
1773541259.603967,23.0,24.9,1,92,-4156,-672
1773541259.6245363,23.0,24.9,1,92,-4156,-672
1773541259.6449065,23.0,24.9,1,52,-4052,-672
1773541259.665521,23.0,24.9,1,52,-4052,-672
1773541259.6862488,23.0,24.9,1,52,-4052,-672
1773541259.7066953,23.0,24.9,1,40,-4072,-688
1773541259.727332,23.0,24.9,1,40,-4072,-688
1773541259.747879,23.0,24.9,1,28,-3940,-608
1773541259.7686174,23.0,24.9,1,28,-3940,-608
1773541259.789052,23.0,24.9,1,28,-3940,-608
1773541259.80932,23.0,24.9,1,60,-4112,-628
1773541259.8300505,23.0,24.9,1,60,-4112,-628
1773541259.8507247,23.0,24.9,1,40,-4116,-680
1773541259.8715,23.0,24.9,1,40,-4116,-680
1773541259.8919296,23.0,24.9,1,40,-4116,-680
1773541259.9124448,23.0,24.9,0,32,-4028,-716
1773541259.933572,23.0,24.9,0,32,-4028,-716
1773541259.9548693,23.0,24.9,0,32,-4028,-716
1773541259.975314,23.0,24.9,1,32,-4032,-660
1773541259.995502,23.0,24.9,1,32,-4032,-660
1773541260.0162156,23.0,24.9,1,8,-4008,-644
1773541260.0377312,23.0,24.9,1,8,-4008,-644
1773541260.0582926,23.0,24.9,1,8,-4008,-644
1773541260.0786622,23.0,24.9,1,0,-4188,-696
1773541260.099371,23.0,24.9,1,0,-4188,-696
1773541260.1205335,23.0,24.9,1,24,-4032,-656
1773541260.1409087,23.0,24.9,1,24,-4032,-656
1773541260.1612573,23.0,24.9,1,24,-4032,-656
1773541260.182174,23.0,24.9,1,-28,-4168,-656
1773541260.2024076,23.0,24.9,1,-28,-4168,-656
1773541260.2227616,23.0,24.9,1,52,-3972,-648
1773541260.2434742,23.0,24.9,1,52,-3972,-648
1773541260.2640646,23.0,24.9,1,52,-3972,-648
1773541260.2845683,23.0,24.9,1,-4,-4144,-684
1773541260.3049033,23.0,24.9,1,-4,-4144,-684
1773541260.3255556,23.0,24.9,1,56,-3976,-608
1773541260.3462083,23.0,24.9,1,56,-3976,-608
1773541260.36682,23.0,24.9,1,56,-3976,-608
1773541260.3874507,23.0,24.9,1,-4,-3964,-676
1773541260.4078789,23.0,24.9,1,-4,-3964,-676
1773541260.4286091,23.0,24.9,1,-4,-3964,-676
1773541260.4489017,23.0,24.9,1,20,-3988,-680
1773541260.4694269,23.0,24.9,1,20,-3988,-680
1773541260.4897645,23.0,24.9,1,76,-4176,-640
1773541260.5103564,23.0,24.9,1,76,-4176,-640
1773541260.5311809,23.0,24.9,1,76,-4176,-640
1773541260.5517082,23.0,24.9,1,20,-4088,-612
1773541260.572693,23.0,24.9,1,20,-4088,-612
1773541260.5932052,23.0,24.9,1,20,-4004,-636
1773541260.613795,23.0,24.9,1,20,-4004,-636
1773541260.6344447,23.0,24.9,1,20,-4004,-636
1773541260.6553578,23.0,24.9,0,56,-4072,-700
1773541260.676186,23.0,24.9,0,56,-4072,-700
1773541260.697074,23.0,24.9,1,96,-4076,-564
1773541260.7177892,23.0,24.9,1,96,-4076,-564
1773541260.7381105,23.0,24.9,1,96,-4076,-564
1773541260.7588003,23.0,24.9,0,156,-3956,-752
1773541260.779328,23.0,24.9,0,156,-3956,-752
1773541260.7998838,23.0,24.9,0,156,-3956,-752
1773541260.821015,23.0,24.9,1,240,-4016,-624
1773541260.841724,23.0,24.9,1,240,-4016,-624
1773541260.8626602,23.0,24.9,0,324,-4196,-560
1773541260.8835278,23.0,24.9,0,324,-4196,-560
1773541260.9046466,23.0,24.9,0,324,-4196,-560
1773541260.9252813,23.0,24.9,1,324,-4024,-472
1773541260.945906,23.0,24.9,1,324,-4024,-472
1773541260.96632,23.0,24.9,1,184,-3860,-292
1773541260.9885273,23.0,24.9,1,184,-3860,-292
1773541261.00888,23.0,24.9,1,184,-3860,-292
1773541261.0292974,23.0,24.9,1,-128,-3988,4
1773541261.0505009,23.0,24.9,1,-128,-3988,4
1773541261.0721908,23.0,24.9,1,-264,-4100,-112
1773541261.0930617,23.0,24.9,1,-264,-4100,-112
1773541261.1135366,23.0,24.9,1,-264,-4100,-112
1773541261.1341722,23.0,24.9,0,-120,-4240,-268
1773541261.1554642,23.0,24.9,0,-120,-4240,-268
1773541261.1762178,23.0,24.9,1,52,-4436,-672
1773541261.196904,23.0,24.9,1,52,-4436,-672
1773541261.2172751,23.0,24.9,1,52,-4436,-672
1773541261.23775,23.0,24.9,1,-180,-4372,-920
1773541261.2581735,23.0,24.9,1,-180,-4372,-920
1773541261.2787187,23.0,24.9,1,-180,-4372,-920
1773541261.2994812,23.0,24.9,1,-180,-4372,-920
1773541261.3202908,23.0,25.1,0,-260,-4076,-712
1773541261.3410769,23.0,25.1,0,-260,-4076,-712
1773541261.3618348,23.0,25.1,1,-308,-3960,-604
1773541261.3871124,23.0,25.1,1,-308,-3960,-604
1773541261.4086401,23.0,25.1,0,-340,-3964,-492
1773541261.4292161,23.0,25.1,0,-340,-3964,-492
1773541261.4503863,23.0,25.1,0,-340,-3964,-492
1773541261.4718733,23.0,25.1,1,-244,-3668,-788
1773541261.49298,23.0,25.1,1,-244,-3668,-788
1773541261.5137122,23.0,25.1,1,-244,-3668,-788
1773541261.5346582,23.0,25.1,1,-104,-4104,-1012
1773541261.561699,23.0,25.1,1,-104,-4104,-1012
1773541261.5829005,23.0,25.1,1,28,-3788,-936
1773541261.6033957,23.0,25.1,1,28,-3788,-936
1773541261.6239204,23.0,25.1,1,312,-4276,-996
1773541261.6443906,23.0,25.1,1,312,-4276,-996
1773541261.6648178,23.0,25.1,1,312,-4276,-996
1773541261.6852124,23.0,25.1,1,468,-4056,-1092
1773541261.7058132,23.0,25.1,1,468,-4056,-1092
1773541261.7266378,23.0,25.1,1,612,-4160,-916
1773541261.7469578,23.0,25.1,1,612,-4160,-916
1773541261.767629,23.0,25.1,1,612,-4160,-916
1773541261.7883384,23.0,25.1,1,756,-3864,-740
1773541261.8088577,23.0,25.1,1,756,-3864,-740
1773541261.8295226,23.0,25.1,1,756,-3864,-740
1773541261.8502455,23.0,25.1,1,772,-3996,-800
1773541261.8708293,23.0,25.1,1,772,-3996,-800
1773541261.891146,23.0,25.1,1,840,-4052,-976
1773541261.911906,23.0,25.1,1,840,-4052,-976
1773541261.932831,23.0,25.1,1,840,-4052,-976
1773541261.95399,23.0,25.1,1,780,-3836,-704
1773541261.9748561,23.0,25.1,1,780,-3836,-704
1773541261.9956741,23.0,25.1,1,788,-3964,-628
1773541262.016317,23.0,25.1,1,788,-3964,-628
1773541262.0370307,23.0,25.1,1,788,-3964,-628
1773541262.0580933,23.0,25.1,1,836,-3864,-416
1773541262.0792644,23.0,25.1,1,836,-3864,-416
1773541262.1002958,23.0,25.1,1,748,-4084,-160
1773541262.1206918,23.0,25.1,1,748,-4084,-160
1773541262.141133,23.0,25.1,1,748,-4084,-160
1773541262.1616995,23.0,25.1,1,624,-4044,80
1773541262.1823134,23.0,25.1,1,624,-4044,80
1773541262.2027981,23.0,25.1,0,604,-4164,84
1773541262.2233486,23.0,25.1,0,604,-4164,84
1773541262.24395,23.0,25.1,0,604,-4164,84
1773541262.2649765,23.0,25.1,1,460,-4000,208
1773541262.285848,23.0,25.1,1,460,-4000,208
1773541262.3061688,23.0,25.1,1,460,-4000,208
1773541262.32704,23.0,25.1,1,288,-4092,108
1773541262.347531,23.0,25.1,1,288,-4092,108
1773541262.3678565,23.0,25.1,1,140,-3780,140
1773541262.3887188,23.0,25.1,1,140,-3780,140
1773541262.4093568,23.0,25.1,1,140,-3780,140
1773541262.4296324,23.0,25.1,1,-4,-4176,364
1773541262.4500952,23.0,25.1,1,-4,-4176,364
1773541262.4705088,23.0,25.1,1,-204,-4460,24
1773541262.4909532,23.0,25.1,1,-204,-4460,24
1773541262.511706,23.0,25.1,1,-204,-4460,24
1773541262.5323343,23.0,25.1,1,-220,-4240,-204
1773541262.5529869,23.0,25.1,1,-220,-4240,-204
1773541262.5737948,23.0,25.1,1,-376,-4436,-416
1773541262.594557,23.0,25.1,1,-376,-4436,-416
1773541262.614805,23.0,25.1,1,-376,-4436,-416
1773541262.635522,23.0,25.1,1,-164,-4220,-616
1773541262.6558285,23.0,25.1,1,-164,-4220,-616
1773541262.6777825,23.0,25.1,1,-164,-4220,-616
1773541262.6983008,23.0,25.1,1,-396,-4296,-500
1773541262.718697,23.0,25.1,1,-396,-4296,-500
1773541262.7391047,23.0,25.1,1,-372,-3560,-536
1773541262.7596345,23.0,25.1,1,-372,-3560,-536
1773541262.7803156,23.0,25.1,1,-372,-3560,-536
1773541262.8005514,23.0,25.1,1,-328,-4100,-888
1773541262.8209007,23.0,25.1,1,-328,-4100,-888
1773541262.8413205,23.0,25.1,1,-112,-3980,-820
1773541262.8618612,23.0,25.1,1,-112,-3980,-820
1773541262.8823013,23.0,25.1,1,-112,-3980,-820
1773541262.9032147,23.0,25.1,1,100,-4020,-1020
1773541262.9237654,23.0,25.1,1,100,-4020,-1020
1773541262.9444594,23.0,25.1,1,308,-4272,-1096
1773541262.9650922,23.0,25.1,1,308,-4272,-1096
1773541262.9854853,23.0,25.1,1,308,-4272,-1096
1773541263.0060718,23.0,25.1,1,592,-4152,-1448
1773541263.0265768,23.0,25.1,1,592,-4152,-1448
1773541263.04713,23.0,25.1,1,592,-4152,-1448
1773541263.0675473,23.0,25.1,1,656,-4312,-1144
1773541263.0890682,23.0,25.1,1,656,-4312,-1144
1773541263.1097639,23.0,25.1,1,1164,-3940,-976
1773541263.1305962,23.0,25.1,1,1164,-3940,-976
1773541263.151391,23.0,25.1,1,1164,-3940,-976
1773541263.1721509,23.0,25.1,0,1288,-4348,-964
1773541263.1928809,23.0,25.1,0,1288,-4348,-964
1773541263.2134411,23.0,25.1,1,936,-3856,-452
1773541263.2340057,23.0,25.1,1,936,-3856,-452
1773541263.2554507,23.0,25.1,1,936,-3856,-452
1773541263.2762454,23.0,25.1,1,700,-3624,52
1773541263.2965856,23.0,25.1,1,700,-3624,52
1773541263.3170857,23.0,25.1,1,700,-3624,52
1773541263.3375306,23.0,25.1,1,700,-3624,52
1773541263.358172,23.0,24.9,0,680,-3800,-608
1773541263.3786314,23.0,24.9,0,680,-3800,-608
1773541263.399502,23.0,24.9,1,608,-4080,-284
1773541263.4200602,23.0,24.9,1,608,-4080,-284
1773541263.4405396,23.0,24.9,1,608,-4080,-284
1773541263.4609303,23.0,24.9,1,516,-3932,-452
1773541263.4816158,23.0,24.9,1,516,-3932,-452
1773541263.502195,23.0,24.9,1,656,-3716,-824
1773541263.5228548,23.0,24.9,1,656,-3716,-824
1773541263.5435884,23.0,24.9,1,656,-3716,-824
1773541263.5643158,23.0,24.9,1,352,-4080,-676
1773541263.5848134,23.0,24.9,1,352,-4080,-676
1773541263.6053252,23.0,24.9,1,328,-3908,-392
1773541263.6256685,23.0,24.9,1,328,-3908,-392
1773541263.6460938,23.0,24.9,1,328,-3908,-392
1773541263.6664686,23.0,24.9,1,-236,-3800,-432
1773541263.6868572,23.0,24.9,1,-236,-3800,-432
1773541263.7072828,23.0,24.9,1,-236,-3800,-432
1773541263.7279284,23.0,24.9,1,-252,-3472,-124
1773541263.748634,23.0,24.9,1,-252,-3472,-124
1773541263.769021,23.0,24.9,1,-148,-4072,-316
1773541263.7897942,23.0,24.9,1,-148,-4072,-316
1773541263.8105185,23.0,24.9,1,-148,-4072,-316
1773541263.8314939,23.0,24.9,1,-8,-4220,-520
1773541263.852145,23.0,24.9,1,-8,-4220,-520
1773541263.872493,23.0,24.9,1,-128,-3688,-1044
1773541263.8929572,23.0,24.9,1,-128,-3688,-1044
1773541263.91369,23.0,24.9,1,-128,-3688,-1044
1773541263.9345644,23.0,24.9,0,-4,-3920,-980
1773541263.9551756,23.0,24.9,0,-4,-3920,-980
1773541263.9758723,23.0,24.9,0,-120,-4580,-532
1773541263.9965434,23.0,24.9,0,-120,-4580,-532
1773541264.0171666,23.0,24.9,0,-120,-4580,-532
1773541264.0382662,23.0,24.9,1,148,-4080,-684
1773541264.0590494,23.0,24.9,1,148,-4080,-684
1773541264.079733,23.0,24.9,1,148,-4080,-684
1773541264.1017177,23.0,24.9,1,-124,-3888,-464
1773541264.122533,23.0,24.9,1,-124,-3888,-464
1773541264.1428995,23.0,24.9,0,244,-4456,-780
1773541264.163694,23.0,24.9,0,244,-4456,-780
1773541264.1841822,23.0,24.9,0,244,-4456,-780
1773541264.2052221,23.0,24.9,1,356,-4048,-64
1773541264.2259505,23.0,24.9,1,356,-4048,-64
1773541264.2466848,23.0,24.9,1,468,-3744,-16
1773541264.267183,23.0,24.9,1,468,-3744,-16
1773541264.2876594,23.0,24.9,1,468,-3744,-16
1773541264.3078709,23.0,24.9,1,-140,-4032,212
1773541264.328566,23.0,24.9,1,-140,-4032,212
1773541264.3499792,23.0,24.9,1,-116,-4128,0
1773541264.3706253,23.0,24.9,1,-116,-4128,0
1773541264.3911834,23.0,24.9,1,-116,-4128,0
1773541264.412111,23.0,24.9,1,-120,-4120,32
1773541264.4326205,23.0,24.9,1,-120,-4120,32
1773541264.4534585,23.0,24.9,1,-104,-4116,28
1773541264.4741924,23.0,24.9,1,-104,-4116,28
1773541264.4950075,23.0,24.9,1,-104,-4116,28
1773541264.5156293,23.0,24.9,1,-92,-4144,0
1773541264.5396745,23.0,24.9,1,-92,-4144,0
1773541264.5604603,23.0,24.9,0,-228,-4552,-152
1773541264.5809462,23.0,24.9,0,-228,-4552,-152
1773541264.6016738,23.0,24.9,0,-228,-4552,-152
1773541264.6223907,23.0,24.9,0,-52,-4268,-144
1773541264.6430154,23.0,24.9,0,-52,-4268,-144
1773541264.6637242,23.0,24.9,0,-80,-3928,108
1773541264.6849067,23.0,24.9,0,-80,-3928,108
1773541264.705626,23.0,24.9,0,-80,-3928,108
1773541264.7260609,23.0,24.9,1,-168,-4256,-8
1773541264.7465312,23.0,24.9,1,-168,-4256,-8
1773541264.7691708,23.0,24.9,1,-196,-4396,36
1773541264.790735,23.0,24.9,1,-196,-4396,36
1773541264.8112648,23.0,24.9,1,-196,-4396,36
1773541264.8317776,23.0,24.9,1,-156,-4256,112
1773541264.8522654,23.0,24.9,1,-156,-4256,112
1773541264.872886,23.0,24.9,1,-156,-4256,112
1773541264.893474,23.0,24.9,0,-208,-4268,-28
1773541264.914329,23.0,24.9,0,-208,-4268,-28
1773541264.9347367,23.0,24.9,1,-172,-4512,68
1773541264.9552946,23.0,24.9,1,-172,-4512,68
1773541264.9758093,23.0,24.9,1,-172,-4512,68
1773541264.996476,23.0,24.9,0,172,-3848,208
1773541265.0170226,23.0,24.9,0,172,-3848,208
1773541265.0377176,23.0,24.9,0,-180,-4064,88
1773541265.0582383,23.0,24.9,0,-180,-4064,88
1773541265.07877,23.0,24.9,0,-180,-4064,88
1773541265.0997264,23.0,24.9,1,-152,-4532,72
1773541265.120112,23.0,24.9,1,-152,-4532,72
1773541265.1406667,23.0,24.9,1,-40,-3720,68
1773541265.1610255,23.0,24.9,1,-40,-3720,68
1773541265.1816027,23.0,24.9,1,-40,-3720,68
1773541265.2018683,23.0,24.9,1,-64,-3700,-64
1773541265.2221498,23.0,24.9,1,-64,-3700,-64
1773541265.2428164,23.0,24.9,1,-64,-3700,-64
1773541265.263453,23.0,24.9,0,-32,-4032,168
1773541265.2840188,23.0,24.9,0,-32,-4032,168
1773541265.3045158,23.0,24.9,0,-112,-4372,96
1773541265.3247104,23.0,24.9,0,-112,-4372,96
1773541265.345535,23.0,24.9,0,-112,-4372,96
1773541265.3659062,23.0,24.9,0,-112,-4372,96
1773541265.386133,23.0,24.8,0,-8,-3932,48
1773541265.4066305,23.0,24.8,0,-8,-3932,48
1773541265.4270108,23.0,24.8,1,104,-3540,172
1773541265.447356,23.0,24.8,1,104,-3540,172
1773541265.4680505,23.0,24.8,1,104,-3540,172
1773541265.4885106,23.0,24.8,0,-76,-4056,-24
1773541265.5092053,23.0,24.8,0,-76,-4056,-24
1773541265.5299184,23.0,24.8,0,-76,-4056,-24
1773541265.5504048,23.0,24.8,1,136,-3232,-36
1773541265.5707664,23.0,24.8,1,136,-3232,-36
1773541265.5914037,23.0,24.8,0,-40,-3456,88
1773541265.6118755,23.0,24.8,0,-40,-3456,88
1773541265.632569,23.0,24.8,0,-40,-3456,88
1773541265.6533864,23.0,24.8,1,-144,-3968,-128
1773541265.6739218,23.0,24.8,1,-144,-3968,-128
1773541265.6947615,23.0,24.8,0,-124,-4368,36
1773541265.71578,23.0,24.8,0,-124,-4368,36
1773541265.739337,23.0,24.8,0,-124,-4368,36
1773541265.7616668,23.0,24.8,0,-52,-3884,-20
1773541265.7825823,23.0,24.8,0,-52,-3884,-20
1773541265.80344,23.0,24.8,0,-88,-4180,12
1773541265.824083,23.0,24.8,0,-88,-4180,12
1773541265.8447516,23.0,24.8,0,-88,-4180,12
1773541265.8655088,23.0,24.8,0,-112,-4188,4
1773541265.886424,23.0,24.8,0,-112,-4188,4
1773541265.907014,23.0,24.8,1,-168,-4384,44
1773541265.927967,23.0,24.8,1,-168,-4384,44
1773541265.9482641,23.0,24.8,1,-168,-4384,44
1773541265.9689107,23.0,24.8,0,-144,-4260,56
1773541265.9893394,23.0,24.8,0,-144,-4260,56
1773541266.0100393,23.0,24.8,0,-192,-4720,24
1773541266.0307992,23.0,24.8,0,-192,-4720,24
1773541266.0512278,23.0,24.8,0,-192,-4720,24
1773541266.0717206,23.0,24.8,1,-108,-4252,108
1773541266.0923088,23.0,24.8,1,-108,-4252,108
1773541266.1132293,23.0,24.8,1,-108,-4252,108
1773541266.133889,23.0,24.8,1,-184,-4304,-148
1773541266.1546724,23.0,24.8,1,-184,-4304,-148
1773541266.1751366,23.0,24.8,1,-156,-4444,28
1773541266.1958184,23.0,24.8,1,-156,-4444,28
1773541266.2166882,23.0,24.8,1,-156,-4444,28
1773541266.2374604,23.0,24.8,0,-128,-3832,-16
1773541266.2582002,23.0,24.8,0,-128,-3832,-16
1773541266.279065,23.0,24.8,1,-60,-3736,-156
1773541266.2998104,23.0,24.8,1,-60,-3736,-156
1773541266.3204122,23.0,24.8,1,-60,-3736,-156
1773541266.3409505,23.0,24.8,0,-88,-3956,76
1773541266.3616674,23.0,24.8,0,-88,-3956,76
1773541266.3820405,23.0,24.8,0,-100,-3356,60
1773541266.4024715,23.0,24.8,0,-100,-3356,60
1773541266.422778,23.0,24.8,0,-100,-3356,60
1773541266.4435499,23.0,24.8,1,-120,-4232,-76
1773541266.464166,23.0,24.8,1,-120,-4232,-76
1773541266.4847965,23.0,24.8,1,-64,-3828,148
1773541266.5054107,23.0,24.8,1,-64,-3828,148
1773541266.5261683,23.0,24.8,1,-64,-3828,148
1773541266.5468135,23.0,24.8,1,-112,-4100,-8
1773541266.5670068,23.0,24.8,1,-112,-4100,-8
1773541266.5883632,23.0,24.8,1,-112,-4100,-8
1773541266.608684,23.0,24.8,1,-144,-4468,0
1773541266.6295063,23.0,24.8,1,-144,-4468,0
1773541266.650211,23.0,24.8,1,-184,-4632,76
1773541266.6708634,23.0,24.8,1,-184,-4632,76
1773541266.6911597,23.0,24.8,1,-184,-4632,76
1773541266.7118762,23.0,24.8,1,-144,-4340,-20
1773541266.732451,23.0,24.8,1,-144,-4340,-20
1773541266.7527966,23.0,24.8,0,-156,-4576,64
1773541266.773473,23.0,24.8,0,-156,-4576,64
1773541266.7943492,23.0,24.8,0,-156,-4576,64
1773541266.8149846,23.0,24.8,0,-136,-4200,112
1773541266.8351853,23.0,24.8,0,-136,-4200,112
1773541266.8558848,23.0,24.8,0,-104,-4128,-28
1773541266.8763845,23.0,24.8,0,-104,-4128,-28
1773541266.8969488,23.0,24.8,0,-104,-4128,-28
1773541266.917218,23.0,24.8,1,-180,-4388,48
1773541266.9379137,23.0,24.8,1,-180,-4388,48
1773541266.9583483,23.0,24.8,1,-180,-4388,48
1773541266.9793715,23.0,24.8,1,-44,-3736,-76
1773541266.9997406,23.0,24.8,1,-44,-3736,-76
1773541267.0207353,23.0,24.8,1,-136,-4028,28
1773541267.0413263,23.0,24.8,1,-136,-4028,28
1773541267.062155,23.0,24.8,1,-136,-4028,28
1773541267.0828068,23.0,24.8,0,-44,-3684,156
1773541267.1053622,23.0,24.8,0,-44,-3684,156
1773541267.1260815,23.0,24.8,0,-24,-3764,16
1773541267.1464918,23.0,24.8,0,-24,-3764,16
1773541267.1672251,23.0,24.8,0,-24,-3764,16
1773541267.1876216,23.0,24.8,0,-60,-4088,96
1773541267.2079926,23.0,24.8,0,-60,-4088,96
1773541267.2283254,23.0,24.8,0,-72,-4416,64
1773541267.2501879,23.0,24.8,0,-72,-4416,64
1773541267.2710738,23.0,24.8,0,-72,-4416,64
1773541267.2919483,23.0,24.8,1,-232,-4484,80
1773541267.3130007,23.0,24.8,1,-232,-4484,80
1773541267.3334048,23.0,24.8,1,-208,-4776,-64
1773541267.3541172,23.0,24.8,1,-208,-4776,-64
1773541267.374659,23.0,24.8,1,-208,-4776,-64
1773541267.394995,23.0,24.8,1,-208,-4776,-64
1773541267.4177153,23.0,24.6,1,-88,-3816,12
1773541267.4385762,23.0,24.6,1,-88,-3816,12
1773541267.4591534,23.0,24.6,1,-88,-3816,12
1773541267.479992,23.0,24.6,1,-104,-3756,232
1773541267.5005515,23.0,24.6,1,-104,-3756,232
1773541267.520874,23.0,24.6,0,-40,-3776,-124
1773541267.5411916,23.0,24.6,0,-40,-3776,-124
1773541267.561633,23.0,24.6,0,-40,-3776,-124
1773541267.5835042,23.0,24.6,1,-56,-3876,48
1773541267.6046033,23.0,24.6,1,-56,-3876,48
