timestamp,temp,hum,mic,ax,ay,az
1773578624.0776951,21.4,30.0,1,-4108,-136,-96
1773578624.0979762,21.4,30.0,1,-4108,-136,-96
1773578624.1185155,21.4,30.0,1,-4192,-84,60
1773578624.1391716,21.4,30.0,1,-4192,-84,60
1773578624.159475,21.4,30.0,0,-4220,-104,48
1773578624.1796741,21.4,30.0,0,-4220,-104,48
1773578624.2002335,21.4,30.0,0,-4220,-104,48
1773578624.220934,21.4,30.0,1,-4160,-124,-68
1773578624.241293,21.4,30.0,1,-4160,-124,-68
1773578624.2619314,21.4,30.0,1,-4180,-108,-24
1773578624.2823539,21.4,30.0,1,-4180,-108,-24
1773578624.302961,21.4,30.0,1,-4180,-108,-24
1773578624.3234468,21.4,30.0,1,-4216,-96,64
1773578624.3438282,21.4,30.0,1,-4216,-96,64
1773578624.3645139,21.4,30.0,1,-4216,-96,64
1773578624.3857882,21.4,30.0,0,-4164,-124,-8
1773578624.4062288,21.4,30.0,0,-4164,-124,-8
1773578624.432365,21.4,30.0,1,-4120,-112,-84
1773578624.4531188,21.4,30.0,1,-4120,-112,-84
1773578624.4734156,21.4,30.0,1,-4196,-88,120
1773578624.4939399,21.4,30.0,1,-4196,-88,120
1773578624.514613,21.4,30.0,1,-4196,-88,120
1773578624.535112,21.4,30.0,1,-4188,-84,48
1773578624.5555153,21.4,30.0,1,-4188,-84,48
1773578624.5761447,21.4,30.0,1,-4188,-84,48
1773578624.5968885,21.4,30.0,0,-4132,-124,-104
1773578624.617818,21.4,30.0,0,-4132,-124,-104
1773578624.6383429,21.4,30.0,1,-4188,-108,76
1773578624.6586986,21.4,30.0,1,-4188,-108,76
1773578624.6789804,21.4,30.0,1,-4188,-108,76
1773578624.69961,21.4,30.0,0,-4212,-68,152
1773578624.7198305,21.4,30.0,0,-4212,-68,152
1773578624.7405386,21.4,30.0,1,-4136,-124,-76
1773578624.7607565,21.4,30.0,1,-4136,-124,-76
1773578624.7811687,21.4,30.0,1,-4136,-124,-76
1773578624.8028386,21.4,30.0,1,-4132,-124,-12
1773578624.8233833,21.4,30.0,1,-4132,-124,-12
1773578624.8435793,21.4,30.0,1,-4216,-92,96
1773578624.863854,21.4,30.0,1,-4216,-92,96
1773578624.8841074,21.4,30.0,1,-4216,-92,96
1773578624.904462,21.4,30.0,1,-4204,-108,4
1773578624.92469,21.4,30.0,1,-4204,-108,4
1773578624.9452214,21.4,30.0,1,-4204,-108,4
1773578624.9674253,21.4,30.0,1,-4116,-132,-96
1773578624.987889,21.4,30.0,1,-4116,-132,-96
1773578625.0086868,21.4,30.0,1,-4204,-80,12
1773578625.0290966,21.4,30.0,1,-4204,-80,12
1773578625.0492966,21.4,30.0,1,-4204,-80,12
1773578625.0696363,21.4,30.0,0,-4228,-92,84
1773578625.0904894,21.4,30.0,0,-4228,-92,84
1773578625.1110568,21.4,30.0,0,-4156,-140,-44
1773578625.1316614,21.4,30.0,0,-4156,-140,-44
1773578625.152301,21.4,30.0,0,-4156,-140,-44
1773578625.1728873,21.4,30.0,1,-4164,-128,-32
1773578625.1931455,21.4,30.0,1,-4164,-128,-32
1773578625.2137334,21.4,30.0,1,-4164,-128,-32
1773578625.2338827,21.4,30.0,1,-4204,-72,124
1773578625.2542186,21.4,30.0,1,-4204,-72,124
1773578625.2747095,21.4,30.0,0,-4156,-132,-12
1773578625.2950432,21.4,30.0,0,-4156,-132,-12
1773578625.3153508,21.4,30.0,0,-4156,-132,-12
1773578625.3359382,21.4,30.0,1,-4116,-136,-76
1773578625.3563952,21.4,30.0,1,-4116,-136,-76
1773578625.3766317,21.4,30.0,1,-4204,-100,88
1773578625.3967714,21.4,30.0,1,-4204,-100,88
1773578625.4171126,21.4,30.0,1,-4204,-100,88
1773578625.4379106,21.4,30.0,0,-4204,-68,68
1773578625.4586546,21.4,30.0,0,-4204,-68,68
1773578625.479276,21.4,30.0,0,-4204,-68,68
1773578625.4998243,21.4,30.0,1,-4136,-132,-124
1773578625.5201378,21.4,30.0,1,-4136,-132,-124
1773578625.540818,21.4,30.0,1,-4180,-92,20
1773578625.5611875,21.4,30.0,1,-4180,-92,20
1773578625.5815651,21.4,30.0,1,-4180,-92,20
1773578625.6027496,21.4,30.0,0,-4208,-92,116
1773578625.625296,21.4,30.0,0,-4208,-92,116
1773578625.646275,21.4,30.0,1,-4136,-108,-72
1773578625.6666186,21.4,30.0,1,-4136,-108,-72
1773578625.6872754,21.4,30.0,1,-4136,-108,-72
1773578625.7077389,21.4,30.0,1,-4152,-144,-52
1773578625.7281609,21.4,30.0,1,-4152,-144,-52
1773578625.7487054,21.4,30.0,1,-4152,-144,-52
1773578625.7689927,21.4,30.0,1,-4152,-144,-52
1773578625.7894845,21.4,30.0,1,-4132,-120,-72
1773578625.8100452,21.4,30.0,1,-4132,-120,-72
1773578625.8302853,21.4,30.0,1,-4152,-112,-24
1773578625.8506856,21.4,30.0,1,-4152,-112,-24
1773578625.8711865,21.4,30.0,1,-4152,-112,-24
1773578625.8918133,21.4,30.0,0,-4208,-88,112
1773578625.9122665,21.4,30.0,0,-4208,-88,112
1773578625.9329016,21.4,30.0,0,-4168,-112,4
1773578625.9534404,21.4,30.0,0,-4168,-112,4
1773578625.9741406,21.4,30.0,0,-4168,-112,4
1773578625.9946072,21.4,30.0,1,-4128,-124,-84
1773578626.0158691,21.4,30.0,1,-4128,-124,-84
1773578626.0362487,21.4,30.0,1,-4220,-72,104
1773578626.0566323,21.4,30.0,1,-4220,-72,104
1773578626.0770571,21.4,30.0,1,-4220,-72,104
1773578626.0973523,21.4,30.0,1,-4188,-84,48
1773578626.117667,21.4,30.0,1,-4188,-84,48
1773578626.1381152,21.4,30.0,1,-4188,-84,48
1773578626.1587758,21.4,30.0,1,-4148,-128,-124
1773578626.1789744,21.4,30.0,1,-4148,-128,-124
1773578626.1995275,21.4,30.0,1,-4156,-104,20
1773578626.2198222,21.4,30.0,1,-4156,-104,20
1773578626.2403638,21.4,30.0,1,-4156,-104,20
1773578626.2610855,21.4,30.0,1,-4204,-56,104
1773578626.2817922,21.4,30.0,1,-4204,-56,104
1773578626.3035572,21.4,30.0,0,-4148,-148,-48
1773578626.3238711,21.4,30.0,0,-4148,-148,-48
1773578626.3444045,21.4,30.0,0,-4148,-148,-48
1773578626.3647492,21.4,30.0,0,-4120,-120,-76
1773578626.3855596,21.4,30.0,0,-4120,-120,-76
1773578626.4061394,21.4,30.0,0,-4120,-120,-76
1773578626.4265802,21.4,30.0,0,-4208,-100,96
1773578626.4471695,21.4,30.0,0,-4208,-100,96
1773578626.467513,21.4,30.0,1,-4184,-128,28
1773578626.4877126,21.4,30.0,1,-4184,-128,28
1773578626.5082986,21.4,30.0,1,-4184,-128,28
1773578626.5286608,21.4,30.0,1,-4132,-140,-84
1773578626.5491192,21.4,30.0,1,-4132,-140,-84
1773578626.569882,21.4,30.0,1,-4184,-96,24
1773578626.5903552,21.4,30.0,1,-4184,-96,24
1773578626.6110008,21.4,30.0,1,-4184,-96,24
1773578626.6314669,21.4,30.0,0,-4160,-100,96
1773578626.6519475,21.4,30.0,0,-4160,-100,96
1773578626.67235,21.4,30.0,0,-4160,-100,96
1773578626.6932976,21.4,30.0,0,-4144,-128,-116
1773578626.71352,21.4,30.0,0,-4144,-128,-116
1773578626.734125,21.4,30.0,1,-4144,-128,-32
1773578626.754642,21.4,30.0,1,-4144,-128,-32
1773578626.7752845,21.4,30.0,1,-4144,-128,-32
1773578626.79599,21.4,30.0,1,-4216,-100,104
1773578626.8167698,21.4,30.0,1,-4216,-100,104
1773578626.838112,21.4,30.0,0,-4196,-124,-72
1773578626.8588035,21.4,30.0,0,-4196,-124,-72
1773578626.87973,21.4,30.0,0,-4196,-124,-72
1773578626.9001849,21.4,30.0,1,-4136,-112,-96
1773578626.9205155,21.4,30.0,1,-4136,-112,-96
1773578626.9413033,21.4,30.0,1,-4208,-76,56
1773578626.9620292,21.4,30.0,1,-4208,-76,56
1773578626.9827032,21.4,30.0,1,-4208,-76,56
1773578627.00324,21.4,30.0,0,-4204,-88,16
1773578627.0237796,21.4,30.0,0,-4204,-88,16
1773578627.0443807,21.4,30.0,1,-4096,-124,-116
1773578627.0647426,21.4,30.0,1,-4096,-124,-116
1773578627.0852454,21.4,30.0,1,-4096,-124,-116
1773578627.1058755,21.4,30.0,0,-4208,-80,8
1773578627.1264093,21.4,30.0,0,-4208,-80,8
1773578627.1472607,21.4,30.0,0,-4208,-80,8
1773578627.1679773,21.4,30.0,1,-4200,-72,76
1773578627.1888738,21.4,30.0,1,-4200,-72,76
1773578627.2096236,21.4,30.0,0,-4160,-140,-32
1773578627.2299962,21.4,30.0,0,-4160,-140,-32
1773578627.2502785,21.4,30.0,0,-4160,-140,-32
1773578627.2704284,21.4,30.0,1,-4132,-116,-64
1773578627.2908912,21.4,30.0,1,-4132,-116,-64
1773578627.3112452,21.4,30.0,1,-4232,-52,68
1773578627.3318756,21.4,30.0,1,-4232,-52,68
1773578627.3526275,21.4,30.0,1,-4232,-52,68
1773578627.3729224,21.4,30.0,1,-4184,-88,36
1773578627.3934562,21.4,30.0,1,-4184,-88,36
1773578627.4139097,21.4,30.0,1,-4184,-88,36
1773578627.4346654,21.4,30.0,1,-4116,-124,-96
1773578627.4554777,21.4,30.0,1,-4116,-124,-96
1773578627.4759834,21.4,30.0,1,-4164,-84,8
1773578627.4964309,21.4,30.0,1,-4164,-84,8
1773578627.5169034,21.4,30.0,1,-4164,-84,8
1773578627.5386593,21.4,30.0,0,-4204,-88,96
1773578627.5591443,21.4,30.0,0,-4204,-88,96
1773578627.5794463,21.4,30.0,0,-4176,-148,-100
1773578627.600123,21.4,30.0,0,-4176,-148,-100
1773578627.6208174,21.4,30.0,0,-4176,-148,-100
1773578627.6416812,21.4,30.0,1,-4136,-120,-68
1773578627.6622303,21.4,30.0,1,-4136,-120,-68
1773578627.6827736,21.4,30.0,1,-4216,-76,116
1773578627.7033195,21.4,30.0,1,-4216,-76,116
1773578627.723626,21.4,30.0,1,-4216,-76,116
1773578627.7442737,21.4,30.0,0,-4196,-104,-52
1773578627.7645822,21.4,30.0,0,-4196,-104,-52
1773578627.7850914,21.4,30.0,0,-4196,-104,-52
1773578627.805553,21.4,30.0,0,-4196,-104,-52
1773578627.82641,21.4,30.0,0,-4204,-68,112
1773578627.8470545,21.4,30.0,0,-4204,-68,112
1773578627.8676283,21.4,30.0,1,-4176,-124,-44
1773578627.8878062,21.4,30.0,1,-4176,-124,-44
1773578627.908285,21.4,30.0,1,-4176,-124,-44
1773578627.928968,21.4,30.0,1,-4160,-128,-20
1773578627.949498,21.4,30.0,1,-4160,-128,-20
1773578627.9698489,21.4,30.0,1,-4160,-128,-20
1773578627.9905586,21.4,30.0,1,-4208,-84,92
1773578628.0112941,21.4,30.0,1,-4208,-84,92
1773578628.0316734,21.4,30.0,1,-4132,-100,44
1773578628.0521631,21.4,30.0,1,-4132,-100,44
1773578628.0729587,21.4,30.0,1,-4132,-100,44
1773578628.0937972,21.4,30.0,1,-4112,-144,-92
1773578628.1142871,21.4,30.0,1,-4112,-144,-92
1773578628.1367707,21.4,30.0,1,-4176,-116,-8
1773578628.1573446,21.4,30.0,1,-4176,-116,-8
1773578628.1779387,21.4,30.0,1,-4176,-116,-8
1773578628.1985705,21.4,30.0,0,-4212,-108,124
1773578628.218759,21.4,30.0,0,-4212,-108,124
1773578628.23897,21.4,30.0,1,-4168,-76,-76
1773578628.2595146,21.4,30.0,1,-4168,-76,-76
1773578628.2799292,21.4,30.0,1,-4168,-76,-76
1773578628.3003633,21.4,30.0,1,-4140,-132,-60
1773578628.3208182,21.4,30.0,1,-4140,-132,-60
1773578628.34127,21.4,30.0,1,-4140,-132,-60
1773578628.361642,21.4,30.0,1,-4216,-96,104
1773578628.3819814,21.4,30.0,1,-4216,-96,104
1773578628.4024067,21.4,30.0,1,-4184,-92,-56
1773578628.4228468,21.4,30.0,1,-4184,-92,-56
1773578628.4431388,21.4,30.0,1,-4184,-92,-56
1773578628.463457,21.4,30.0,1,-4104,-132,-84
1773578628.4855087,21.4,30.0,1,-4104,-132,-84
1773578628.506045,21.4,30.0,1,-4188,-84,56
1773578628.527114,21.4,30.0,1,-4188,-84,56
1773578628.547694,21.4,30.0,1,-4188,-84,56
1773578628.5686193,21.4,30.0,0,-4212,-116,28
1773578628.5893347,21.4,30.0,0,-4212,-116,28
1773578628.609897,21.4,30.0,1,-4164,-120,-80
1773578628.6302745,21.4,30.0,1,-4164,-120,-80
1773578628.650757,21.4,30.0,1,-4164,-120,-80
1773578628.6711707,21.4,30.0,1,-4216,-88,-12
1773578628.6914334,21.4,30.0,1,-4216,-88,-12
1773578628.7116933,21.4,30.0,1,-4216,-88,-12
1773578628.7329705,21.4,30.0,0,-4236,-112,100
1773578628.7536752,21.4,30.0,0,-4236,-112,100
1773578628.774366,21.4,30.0,0,-4140,-116,-36
1773578628.7950559,21.4,30.0,0,-4140,-116,-36
1773578628.815863,21.4,30.0,0,-4140,-116,-36
1773578628.8364315,21.4,30.0,1,-4160,-152,-52
1773578628.8569741,21.4,30.0,1,-4160,-152,-52
1773578628.877986,21.4,30.0,1,-4204,-64,112
1773578628.8984504,21.4,30.0,1,-4204,-64,112
1773578628.9193132,21.4,30.0,1,-4204,-64,112
1773578628.94102,21.4,30.0,1,-4168,-120,64
1773578628.961701,21.4,30.0,1,-4168,-120,64
1773578628.9823606,21.4,30.0,1,-4112,-148,-68
1773578629.003463,21.4,30.0,1,-4112,-148,-68
1773578629.0243835,21.4,30.0,1,-4112,-148,-68
1773578629.044789,21.4,30.0,1,-4184,-92,64
1773578629.0653944,21.4,30.0,1,-4184,-92,64
1773578629.0862973,21.4,30.0,0,-4236,-88,108
1773578629.107129,21.4,30.0,0,-4236,-88,108
1773578629.127878,21.4,30.0,0,-4236,-88,108
1773578629.148433,21.4,30.0,1,-4192,-132,-72
1773578629.169139,21.4,30.0,1,-4192,-132,-72
1773578629.189646,21.4,30.0,1,-4192,-132,-72
1773578629.2101023,21.4,30.0,1,-4148,-132,-84
1773578629.2307696,21.4,30.0,1,-4148,-132,-84
1773578629.2519064,21.4,30.0,1,-4200,-96,88
1773578629.2725625,21.4,30.0,1,-4200,-96,88
1773578629.2930696,21.4,30.0,1,-4200,-96,88
1773578629.313768,21.4,30.0,0,-4180,-112,-12
1773578629.3342009,21.4,30.0,0,-4180,-112,-12
1773578629.354885,21.4,30.0,1,-4128,-140,-108
1773578629.3756192,21.4,30.0,1,-4128,-140,-108
1773578629.3960736,21.4,30.0,1,-4128,-140,-108
1773578629.4165535,21.4,30.0,1,-4220,-84,40
1773578629.4373925,21.4,30.0,1,-4220,-84,40
1773578629.4580028,21.4,30.0,1,-4212,-84,44
1773578629.4786243,21.4,30.0,1,-4212,-84,44
1773578629.499206,21.4,30.0,1,-4212,-84,44
1773578629.519776,21.4,30.0,1,-4140,-128,-84
1773578629.5403938,21.4,30.0,1,-4140,-128,-84
1773578629.5609832,21.4,30.0,1,-4140,-128,-84
1773578629.5815194,21.4,30.0,1,-4192,-124,-16
1773578629.6019022,21.4,30.0,1,-4192,-124,-16
1773578629.6224623,21.4,30.0,0,-4208,-104,136
1773578629.642892,21.4,30.0,0,-4208,-104,136
1773578629.6635425,21.4,30.0,0,-4208,-104,136
1773578629.6841803,21.4,30.0,1,-4160,-116,4
1773578629.7049637,21.4,30.0,1,-4160,-116,4
1773578629.7255816,21.4,30.0,1,-4148,-136,-88
1773578629.7459822,21.4,30.0,1,-4148,-136,-88
1773578629.7671962,21.4,30.0,1,-4148,-136,-88
1773578629.7875848,21.4,30.0,1,-4208,-88,92
1773578629.8083832,21.4,30.0,1,-4208,-88,92
1773578629.8292277,21.4,30.0,1,-4208,-88,92
1773578629.8504739,21.4,30.0,1,-4208,-88,92
1773578629.8710756,21.4,30.0,1,-4136,-104,-76
1773578629.891937,21.4,30.0,1,-4136,-104,-76
1773578629.9123018,21.4,30.0,1,-4192,-116,108
1773578629.9330416,21.4,30.0,1,-4192,-116,108
1773578629.9546547,21.4,30.0,1,-4192,-116,108
1773578629.9752965,21.4,30.0,0,-4176,-124,-40
1773578629.9960408,21.4,30.0,0,-4176,-124,-40
1773578630.017094,21.4,30.0,1,-4116,-124,-84
1773578630.0378168,21.4,30.0,1,-4116,-124,-84
1773578630.0587416,21.4,30.0,1,-4116,-124,-84
1773578630.0815566,21.4,30.0,1,-4204,-80,56
1773578630.1024883,21.4,30.0,1,-4204,-80,56
1773578630.122895,21.4,30.0,1,-4224,-128,40
1773578630.1432803,21.4,30.0,1,-4224,-128,40
1773578630.1639478,21.4,30.0,1,-4224,-128,40
1773578630.1844597,21.4,30.0,1,-4136,-128,-80
1773578630.2051635,21.4,30.0,1,-4136,-128,-80
1773578630.225812,21.4,30.0,1,-4176,-104,4
1773578630.2468426,21.4,30.0,1,-4176,-104,4
1773578630.2678573,21.4,30.0,1,-4176,-104,4
1773578630.2887964,21.4,30.0,0,-4216,-64,104
1773578630.3095922,21.4,30.0,0,-4216,-64,104
1773578630.3303263,21.4,30.0,0,-4216,-64,104
1773578630.3513527,21.4,30.0,0,-4148,-140,-16
1773578630.3731134,21.4,30.0,0,-4148,-140,-16
1773578630.3944497,21.4,30.0,1,-4132,-124,-76
1773578630.4148486,21.4,30.0,1,-4132,-124,-76
1773578630.435469,21.4,30.0,1,-4132,-124,-76
1773578630.4562385,21.4,30.0,1,-4204,-72,96
1773578630.4775548,21.4,30.0,1,-4204,-72,96
1773578630.4980898,21.4,30.0,0,-4208,-96,80
1773578630.5193262,21.4,30.0,0,-4208,-96,80
1773578630.5398438,21.4,30.0,0,-4208,-96,80
1773578630.5604777,21.4,30.0,1,-4140,-140,-92
1773578630.5814247,21.4,30.0,1,-4140,-140,-92
1773578630.6032043,21.4,30.0,1,-4164,-88,40
1773578630.6240447,21.4,30.0,1,-4164,-88,40
1773578630.644944,21.4,30.0,1,-4164,-88,40
1773578630.665816,21.4,30.0,1,-4208,-64,108
1773578630.6880698,21.4,30.0,1,-4208,-64,108
1773578630.708736,21.4,30.0,1,-4128,-160,-80
1773578630.7293947,21.4,30.0,1,-4128,-160,-80
1773578630.7501295,21.4,30.0,1,-4128,-160,-80
1773578630.7703083,21.4,30.0,1,-4120,-128,-12
1773578630.791009,21.4,30.0,1,-4120,-128,-12
1773578630.811388,21.4,30.0,1,-4208,-64,84
1773578630.8319857,21.4,30.0,1,-4208,-64,84
1773578630.8528922,21.4,30.0,1,-4208,-64,84
1773578630.8735569,21.4,30.0,0,-4160,-120,-28
1773578630.893988,21.4,30.0,0,-4160,-120,-28
1773578630.9147007,21.4,30.0,0,-4160,-120,-28
1773578630.9361572,21.4,30.0,1,-4148,-128,-108
1773578630.956592,21.4,30.0,1,-4148,-128,-108
1773578630.9773614,21.4,30.0,1,-4180,-80,20
1773578630.9987454,21.4,30.0,1,-4180,-80,20
1773578631.019037,21.4,30.0,1,-4180,-80,20
1773578631.0400333,21.4,30.0,0,-4220,-76,72
1773578631.0612695,21.4,30.0,0,-4220,-76,72
1773578631.0820978,21.4,30.0,1,-4140,-128,-68
1773578631.1045878,21.4,30.0,1,-4140,-128,-68
1773578631.125031,21.4,30.0,1,-4140,-128,-68
1773578631.1461627,21.4,30.0,1,-4156,-120,-64
1773578631.1672041,21.4,30.0,1,-4156,-120,-64
1773578631.1879308,21.4,30.0,1,-4236,-88,132
1773578631.2084842,21.4,30.0,1,-4236,-88,132
1773578631.229103,21.4,30.0,1,-4236,-88,132
1773578631.2502286,21.4,30.0,1,-4180,-108,36
1773578631.2711291,21.4,30.0,1,-4180,-108,36
1773578631.291602,21.4,30.0,1,-4144,-136,-88
1773578631.3121889,21.4,30.0,1,-4144,-136,-88
1773578631.332882,21.4,30.0,1,-4144,-136,-88
1773578631.353611,21.4,30.0,1,-4212,-112,104
1773578631.3747153,21.4,30.0,1,-4212,-112,104
1773578631.3956573,21.4,30.0,0,-4204,-68,0
1773578631.4160736,21.4,30.0,0,-4204,-68,0
1773578631.4368412,21.4,30.0,0,-4204,-68,0
1773578631.4576871,21.4,30.0,1,-4100,-144,-104
1773578631.4785118,21.4,30.0,1,-4100,-144,-104
1773578631.4994445,21.4,30.0,1,-4204,-92,12
1773578631.519771,21.4,30.0,1,-4204,-92,12
1773578631.5403152,21.4,30.0,1,-4204,-92,12
1773578631.5613766,21.4,30.0,0,-4216,-84,116
1773578631.5823948,21.4,30.0,0,-4216,-84,116
1773578631.6030123,21.4,30.0,0,-4216,-84,116
1773578631.623598,21.4,30.0,0,-4160,-144,-68
1773578631.644539,21.4,30.0,0,-4160,-144,-68
1773578631.6651752,21.4,30.0,1,-4148,-116,-48
1773578631.6855462,21.4,30.0,1,-4148,-116,-48
1773578631.7061224,21.4,30.0,1,-4148,-116,-48
1773578631.726965,21.4,30.0,1,-4240,-108,52
1773578631.7479312,21.4,30.0,1,-4240,-108,52
1773578631.769342,21.4,30.0,1,-4188,-92,8
1773578631.7899773,21.4,30.0,1,-4188,-92,8
1773578631.8106477,21.4,30.0,1,-4188,-92,8
1773578631.8315604,21.4,30.0,1,-4120,-124,-76
1773578631.8548076,21.4,30.0,1,-4120,-124,-76
1773578631.8757615,21.4,30.0,1,-4120,-124,-76
1773578631.8962185,21.4,30.0,1,-4188,-116,12
1773578631.9168375,21.4,30.0,1,-4188,-116,12
1773578631.9373903,21.4,30.0,1,-4188,-116,12
1773578631.957831,21.4,30.0,1,-4128,-148,-100
1773578631.9783163,21.4,30.0,1,-4128,-148,-100
1773578631.999066,21.4,30.0,1,-4128,-148,-100
1773578632.0194917,21.4,30.0,1,-4212,-48,84
1773578632.0399287,21.4,30.0,1,-4212,-48,84
1773578632.0605004,21.4,30.0,1,-4204,-108,96
1773578632.081166,21.4,30.0,1,-4204,-108,96
1773578632.1020677,21.4,30.0,1,-4204,-108,96
1773578632.1228569,21.4,30.0,1,-4108,-148,-100
1773578632.1433837,21.4,30.0,1,-4108,-148,-100
1773578632.1648066,21.4,30.0,1,-4168,-88,44
1773578632.185686,21.4,30.0,1,-4168,-88,44
1773578632.2073572,21.4,30.0,1,-4168,-88,44
1773578632.2291036,21.4,30.0,1,-4220,-96,80
1773578632.2502065,21.4,30.0,1,-4220,-96,80
1773578632.2705727,21.4,30.0,1,-4148,-120,-64
1773578632.2911065,21.4,30.0,1,-4148,-120,-64
1773578632.3132732,21.4,30.0,1,-4148,-120,-64
1773578632.337186,21.4,30.0,1,-4128,-148,-64
1773578632.3579059,21.4,30.0,1,-4128,-148,-64
1773578632.3783364,21.4,30.0,1,-4224,-84,80
1773578632.3991632,21.4,30.0,1,-4224,-84,80
1773578632.4220998,21.4,30.0,1,-4224,-84,80
1773578632.4433925,21.4,30.0,0,-4196,-112,16
1773578632.4647257,21.4,30.0,0,-4196,-112,16
1773578632.4855146,21.4,30.0,1,-4120,-144,-92
1773578632.5065484,21.4,30.0,1,-4120,-144,-92
1773578632.5285683,21.4,30.0,1,-4120,-144,-92
1773578632.5494177,21.4,30.0,1,-4176,-104,12
1773578632.5700276,21.4,30.0,1,-4176,-104,12
1773578632.5906441,21.4,30.0,0,-4208,-96,92
1773578632.6111212,21.4,30.0,0,-4208,-96,92
1773578632.6314409,21.4,30.0,0,-4208,-96,92
1773578632.6529922,21.4,30.0,1,-4140,-120,-64
1773578632.673472,21.4,30.0,1,-4140,-120,-64
1773578632.6945071,21.4,30.0,1,-4172,-136,-72
1773578632.715597,21.4,30.0,1,-4172,-136,-72
1773578632.7375834,21.4,30.0,1,-4172,-136,-72
1773578632.7585897,21.4,30.0,1,-4232,-68,116
1773578632.7800863,21.4,30.0,1,-4232,-68,116
1773578632.8009174,21.4,30.0,0,-4196,-100,-32
1773578632.825216,21.4,30.0,0,-4196,-100,-32
1773578632.8460522,21.4,30.0,0,-4196,-100,-32
1773578632.8669002,21.4,30.0,1,-4120,-144,-108
1773578632.887245,21.4,30.0,1,-4120,-144,-108
1773578632.9077475,21.4,30.0,1,-4236,-80,92
1773578632.9303284,21.4,30.0,1,-4236,-80,92
1773578632.9509249,21.4,30.0,1,-4236,-80,92
1773578632.9716508,21.4,30.0,0,-4208,-80,32
1773578632.992322,21.4,30.0,0,-4208,-80,32
1773578633.0128295,21.4,30.0,0,-4124,-128,-92
1773578633.0333846,21.4,30.0,0,-4124,-128,-92
1773578633.0541892,21.4,30.0,0,-4124,-128,-92
1773578633.074817,21.4,30.0,1,-4188,-104,-4
1773578633.095046,21.4,30.0,1,-4188,-104,-4
1773578633.115556,21.4,30.0,1,-4248,-76,124
1773578633.136101,21.4,30.0,1,-4248,-76,124
1773578633.156459,21.4,30.0,1,-4248,-76,124
1773578633.1771028,21.4,30.0,1,-4168,-116,-40
1773578633.1978316,21.4,30.0,1,-4168,-116,-40
1773578633.219342,21.4,30.0,1,-4168,-116,-40
1773578633.2401102,21.4,30.0,1,-4144,-120,-56
1773578633.2606466,21.4,30.0,1,-4144,-120,-56
1773578633.281562,21.4,30.0,1,-4204,-92,124
1773578633.303085,21.4,30.0,1,-4204,-92,124
1773578633.3238256,21.4,30.0,1,-4204,-92,124
1773578633.352449,21.4,30.0,1,-4188,-84,48
1773578633.3735874,21.4,30.0,1,-4188,-84,48
1773578633.3952959,21.4,30.0,1,-4124,-112,-104
1773578633.4157581,21.4,30.0,1,-4124,-112,-104
1773578633.4360576,21.4,30.0,1,-4184,-132,52
1773578633.4567952,21.4,30.0,1,-4184,-132,52
1773578633.477512,21.4,30.0,1,-4184,-132,52
1773578633.4982593,21.4,30.0,0,-4220,-88,92
1773578633.5193129,21.4,30.0,0,-4220,-88,92
1773578633.5396895,21.4,30.0,1,-4128,-136,-68
1773578633.560576,21.4,30.0,1,-4128,-136,-68
1773578633.5820658,21.4,30.0,1,-4128,-136,-68
1773578633.603373,21.4,30.0,1,-4156,-116,-16
1773578633.624011,21.4,30.0,1,-4156,-116,-16
1773578633.6451004,21.4,30.0,0,-4204,-56,116
1773578633.6662886,21.4,30.0,0,-4204,-56,116
1773578633.6867247,21.4,30.0,0,-4204,-56,116
1773578633.7073202,21.4,30.0,0,-4160,-136,-20
1773578633.7280302,21.4,30.0,0,-4160,-136,-20
1773578633.7485597,21.4,30.0,0,-4160,-136,-20
1773578633.7694411,21.4,30.0,1,-4108,-144,-72
1773578633.789852,21.4,30.0,1,-4108,-144,-72
1773578633.810434,21.4,30.0,1,-4204,-120,36
1773578633.831156,21.4,30.0,1,-4204,-120,36
1773578633.8521223,21.4,30.0,1,-4204,-120,36
1773578633.872567,21.4,30.0,0,-4196,-104,56
1773578633.8940492,21.4,30.0,0,-4196,-104,56
1773578633.9155142,21.4,30.0,0,-4196,-104,56
1773578633.9359412,21.4,30.0,0,-4196,-92,132
1773578633.956501,21.4,30.0,0,-4196,-92,132
1773578633.977465,21.4,30.0,0,-4196,-92,132
1773578633.9983912,21.4,30.0,0,-4188,-100,48
1773578634.0204065,21.4,30.0,0,-4188,-100,48
1773578634.0412586,21.4,30.0,1,-4128,-120,-96
1773578634.0622845,21.4,30.0,1,-4128,-120,-96
1773578634.0830197,21.4,30.0,1,-4128,-120,-96
1773578634.10429,21.4,30.0,1,-4176,-124,64
1773578634.1249428,21.4,30.0,1,-4176,-124,64
1773578634.1456027,21.4,30.0,1,-4176,-124,64
1773578634.1664526,21.4,30.0,0,-4212,-72,116
1773578634.1868346,21.4,30.0,0,-4212,-72,116
1773578634.2077312,21.4,30.0,1,-4132,-140,-68
1773578634.2285757,21.4,30.0,1,-4132,-140,-68
1773578634.2488234,21.4,30.0,1,-4132,-140,-68
1773578634.2693994,21.4,30.0,1,-4140,-136,-12
1773578634.2900116,21.4,30.0,1,-4140,-136,-12
1773578634.3104095,21.4,30.0,0,-4212,-80,100
1773578634.3310006,21.4,30.0,0,-4212,-80,100
1773578634.3512967,21.4,30.0,0,-4212,-80,100
1773578634.3719058,21.4,30.0,0,-4152,-120,-16
1773578634.392547,21.4,30.0,0,-4152,-120,-16
1773578634.41291,21.4,30.0,1,-4116,-128,-64
1773578634.43335,21.4,30.0,1,-4116,-128,-64
1773578634.45487,21.4,30.0,1,-4116,-128,-64
1773578634.4756982,21.4,30.0,1,-4200,-88,52
1773578634.4961042,21.4,30.0,1,-4200,-88,52
1773578634.5172453,21.4,30.0,1,-4200,-88,52
1773578634.5388997,21.4,30.0,1,-4212,-108,72
1773578634.5592816,21.4,30.0,1,-4212,-108,72
1773578634.5798702,21.4,30.0,1,-4136,-132,-84
1773578634.6001248,21.4,30.0,1,-4136,-132,-84
1773578634.6205482,21.4,30.0,1,-4136,-132,-84
1773578634.6410642,21.4,30.0,1,-4164,-120,-24
1773578634.6616094,21.4,30.0,1,-4164,-120,-24
1773578634.682092,21.4,30.0,1,-4216,-96,124
1773578634.7026641,21.4,30.0,1,-4216,-96,124
1773578634.7231536,21.4,30.0,1,-4216,-96,124
1773578634.7436073,21.4,30.0,0,-4152,-112,-84
1773578634.7639842,21.4,30.0,0,-4152,-112,-84
1773578634.78432,21.4,30.0,1,-4132,-124,-64
1773578634.8048506,21.4,30.0,1,-4132,-124,-64
1773578634.8251636,21.4,30.0,1,-4132,-124,-64
1773578634.8455603,21.4,30.0,1,-4212,-76,88
1773578634.8662646,21.4,30.0,1,-4212,-76,88
1773578634.8875058,21.4,30.0,1,-4212,-76,88
1773578634.908031,21.4,30.0,0,-4172,-116,44
1773578634.9290445,21.4,30.0,0,-4172,-116,44
1773578634.9500227,21.4,30.0,1,-4140,-132,-116
1773578634.970717,21.4,30.0,1,-4140,-132,-116
1773578634.9912424,21.4,30.0,1,-4140,-132,-116
1773578635.012465,21.4,30.0,1,-4200,-80,36
1773578635.0331979,21.4,30.0,1,-4200,-80,36
1773578635.0539265,21.4,30.0,1,-4212,-116,104
1773578635.0742218,21.4,30.0,1,-4212,-116,104
1773578635.0949392,21.4,30.0,1,-4212,-116,104
1773578635.1156778,21.4,30.0,0,-4144,-136,-76
1773578635.1362321,21.4,30.0,0,-4144,-136,-76
1773578635.1570444,21.4,30.0,1,-4164,-88,-48
1773578635.1777813,21.4,30.0,1,-4164,-88,-48
1773578635.1987267,21.4,30.0,1,-4164,-88,-48
1773578635.2197628,21.4,30.0,0,-4204,-76,84
1773578635.240308,21.4,30.0,0,-4204,-76,84
1773578635.2611308,21.4,30.0,0,-4172,-104,20
1773578635.282877,21.4,30.0,0,-4172,-104,20
1773578635.3034475,21.4,30.0,0,-4172,-104,20
1773578635.324063,21.4,30.0,1,-4120,-112,-80
1773578635.3445852,21.4,30.0,1,-4120,-112,-80
1773578635.3652766,21.4,30.0,1,-4120,-112,-80
1773578635.385979,21.4,30.0,1,-4188,-88,32
1773578635.4067335,21.4,30.0,1,-4188,-88,32
1773578635.4274337,21.4,30.0,1,-4204,-84,84
1773578635.4483857,21.4,30.0,1,-4204,-84,84
1773578635.4692926,21.4,30.0,1,-4204,-84,84
1773578635.489909,21.4,30.0,1,-4120,-148,-120
1773578635.5106866,21.4,30.0,1,-4120,-148,-120
1773578635.532597,21.4,30.0,1,-4136,-140,-32
1773578635.5527914,21.4,30.0,1,-4136,-140,-32
1773578635.5733218,21.4,30.0,1,-4136,-140,-32
1773578635.5988395,21.4,30.0,1,-4220,-76,108
1773578635.6190867,21.4,30.0,1,-4220,-76,108
1773578635.6396265,21.4,30.0,1,-4176,-104,-68
1773578635.6619725,21.4,30.0,1,-4176,-104,-68
1773578635.6830127,21.4,30.0,1,-4176,-104,-68
1773578635.7037756,21.4,30.0,1,-4112,-136,-92
1773578635.7243469,21.4,30.0,1,-4112,-136,-92
1773578635.7449226,21.4,30.0,1,-4216,-80,84
1773578635.7660499,21.4,30.0,1,-4216,-80,84
1773578635.7873654,21.4,30.0,1,-4216,-80,84
1773578635.8084323,21.4,30.0,1,-4216,-88,24
1773578635.828974,21.4,30.0,1,-4216,-88,24
1773578635.8496242,21.4,30.0,1,-4144,-128,-76
1773578635.8703685,21.4,30.0,1,-4144,-128,-76
1773578635.8906486,21.4,30.0,1,-4144,-128,-76
1773578635.9112518,21.4,30.0,1,-4180,-96,-8
1773578635.932149,21.4,30.0,1,-4180,-96,-8
1773578635.952864,21.4,30.0,1,-4180,-96,-8
1773578635.973469,21.4,30.0,1,-4180,-96,-8
1773578635.994507,21.4,30.0,1,-4124,-144,-56
1773578636.015767,21.4,30.0,1,-4124,-144,-56
1773578636.0365074,21.4,30.0,1,-4192,-76,4
1773578636.0572484,21.4,30.0,1,-4192,-76,4
1773578636.078371,21.4,30.0,1,-4192,-76,4
1773578636.0989099,21.4,30.0,0,-4180,-120,108
1773578636.1201234,21.4,30.0,0,-4180,-120,108
1773578636.140488,21.4,30.0,1,-4100,-120,-120
1773578636.1613865,21.4,30.0,1,-4100,-120,-120
1773578636.182267,21.4,30.0,1,-4100,-120,-120
1773578636.202877,21.4,30.0,1,-4136,-128,-24
1773578636.2235737,21.4,30.0,1,-4136,-128,-24
1773578636.2441604,21.4,30.0,0,-4216,-84,128
1773578636.2649398,21.4,30.0,0,-4216,-84,128
1773578636.2859712,21.4,30.0,0,-4216,-84,128
1773578636.3066323,21.4,30.0,0,-4184,-104,-72
1773578636.3274293,21.4,30.0,0,-4184,-104,-72
1773578636.3476574,21.4,30.0,1,-4132,-136,-104
1773578636.3692164,21.4,30.0,1,-4132,-136,-104
1773578636.3903792,21.4,30.0,1,-4132,-136,-104
1773578636.411039,21.4,30.0,1,-4228,-72,76
1773578636.4319842,21.4,30.0,1,-4228,-72,76
1773578636.452466,21.4,30.0,1,-4228,-72,76
1773578636.4730823,21.4,30.0,0,-4196,-112,12
1773578636.4939725,21.4,30.0,0,-4196,-112,12
1773578636.514966,21.4,30.0,1,-4108,-120,-84
1773578636.5355906,21.4,30.0,1,-4108,-120,-84
1773578636.5564709,21.4,30.0,1,-4108,-120,-84
1773578636.57723,21.4,30.0,1,-4172,-112,16
1773578636.5984457,21.4,30.0,1,-4172,-112,16
1773578636.6193178,21.4,30.0,0,-4204,-56,68
1773578636.6399498,21.4,30.0,0,-4204,-56,68
1773578636.6605632,21.4,30.0,0,-4204,-56,68
1773578636.6814103,21.4,30.0,1,-4188,-120,-48
1773578636.7035527,21.4,30.0,1,-4188,-120,-48
1773578636.724229,21.4,30.0,1,-4160,-128,-68
1773578636.744842,21.4,30.0,1,-4160,-128,-68
1773578636.7654746,21.4,30.0,1,-4160,-128,-68
1773578636.786176,21.4,30.0,1,-4196,-68,136
1773578636.8070998,21.4,30.0,1,-4196,-68,136
1773578636.8276658,21.4,30.0,0,-4188,-120,36
1773578636.8485112,21.4,30.0,0,-4188,-120,36
1773578636.8697536,21.4,30.0,0,-4188,-120,36
1773578636.8903859,21.4,30.0,1,-4124,-136,-112
1773578636.9113104,21.4,30.0,1,-4124,-136,-112
1773578636.9323242,21.4,30.0,1,-4172,-112,48
1773578636.9528418,21.4,30.0,1,-4172,-112,48
1773578636.9735994,21.4,30.0,1,-4172,-112,48
1773578636.9943564,21.4,30.0,0,-4220,-68,96
1773578637.015264,21.4,30.0,0,-4220,-68,96
1773578637.0356526,21.4,30.0,0,-4220,-68,96
1773578637.0563574,21.4,30.0,1,-4120,-132,-76
1773578637.0770943,21.4,30.0,1,-4120,-132,-76
1773578637.0978436,21.4,30.0,1,-4124,-144,-4
1773578637.1199582,21.4,30.0,1,-4124,-144,-4
1773578637.1410768,21.4,30.0,1,-4124,-144,-4
1773578637.1623163,21.4,30.0,0,-4244,-64,128
1773578637.1830971,21.4,30.0,0,-4244,-64,128
1773578637.2043178,21.4,30.0,0,-4160,-136,-20
1773578637.2251287,21.4,30.0,0,-4160,-136,-20
1773578637.2456996,21.4,30.0,0,-4160,-136,-20
1773578637.2668507,21.4,30.0,1,-4124,-108,-56
1773578637.2872298,21.4,30.0,1,-4124,-108,-56
1773578637.3078809,21.4,30.0,1,-4208,-104,48
1773578637.329202,21.4,30.0,1,-4208,-104,48
1773578637.3496256,21.4,30.0,1,-4208,-104,48
1773578637.3704453,21.4,30.0,1,-4184,-84,12
1773578637.390917,21.4,30.0,1,-4184,-84,12
1773578637.4114676,21.4,30.0,1,-4116,-108,-96
1773578637.4325647,21.4,30.0,1,-4116,-108,-96
1773578637.4535773,21.4,30.0,1,-4116,-108,-96
1773578637.4762015,21.4,30.0,1,-4176,-136,-20
1773578637.4974582,21.4,30.0,1,-4176,-136,-20
1773578637.519986,21.4,30.0,0,-4212,-64,88
1773578637.5406332,21.4,30.0,0,-4212,-64,88
1773578637.5627482,21.4,30.0,0,-4212,-64,88
1773578637.5839517,21.4,30.0,0,-4184,-112,0
1773578637.6051717,21.4,30.0,0,-4184,-112,0
1773578637.6261926,21.4,30.0,1,-4152,-128,-64
1773578637.6478052,21.4,30.0,1,-4152,-128,-64
1773578637.6686566,21.4,30.0,1,-4152,-128,-64
1773578637.688999,21.4,30.0,1,-4196,-84,124
1773578637.7098796,21.4,30.0,1,-4196,-84,124
1773578637.7306418,21.4,30.0,0,-4192,-72,92
1773578637.7522626,21.4,30.0,0,-4192,-72,92
1773578637.7730064,21.4,30.0,0,-4192,-72,92
1773578637.7940495,21.4,30.0,1,-4120,-124,-88
1773578637.815087,21.4,30.0,1,-4120,-124,-88
1773578637.8360286,21.4,30.0,1,-4164,-88,44
1773578637.8564544,21.4,30.0,1,-4164,-88,44
1773578637.8771584,21.4,30.0,1,-4164,-88,44
1773578637.8983479,21.4,30.0,1,-4228,-72,140
1773578637.919196,21.4,30.0,1,-4228,-72,140
1773578637.93989,21.4,30.0,1,-4144,-120,-80
1773578637.9602568,21.4,30.0,1,-4144,-120,-80
1773578637.9808958,21.4,30.0,1,-4144,-120,-80
1773578638.001943,21.4,30.0,1,-4144,-120,-80
1773578638.0224984,21.4,30.0,1,-4200,-104,28
1773578638.0430162,21.4,30.0,1,-4200,-104,28
1773578638.0638514,21.4,30.0,1,-4200,-104,28
1773578638.0843096,21.4,30.0,1,-4124,-132,-84
1773578638.1048505,21.4,30.0,1,-4124,-132,-84
1773578638.125327,21.4,30.0,1,-4188,-76,-8
1773578638.14607,21.4,30.0,1,-4188,-76,-8
1773578638.1664855,21.4,30.0,1,-4188,-76,-8
1773578638.1872396,21.4,30.0,0,-4220,-80,136
1773578638.2075365,21.4,30.0,0,-4220,-80,136
1773578638.228542,21.4,30.0,0,-4220,-80,136
1773578638.2491436,21.4,30.0,0,-4172,-116,-52
1773578638.2694016,21.4,30.0,0,-4172,-116,-52
1773578638.2900364,21.4,30.0,1,-4136,-144,-96
1773578638.3108547,21.4,30.0,1,-4136,-144,-96
1773578638.3315868,21.4,30.0,1,-4136,-144,-96
1773578638.353187,21.4,30.0,1,-4196,-84,116
1773578638.3736084,21.4,30.0,1,-4196,-84,116
1773578638.3942537,21.4,30.0,0,-4184,-104,52
1773578638.414628,21.4,30.0,0,-4184,-104,52
1773578638.4364965,21.4,30.0,0,-4184,-104,52
1773578638.4567742,21.4,30.0,1,-4068,-148,-104
1773578638.4776168,21.4,30.0,1,-4068,-148,-104
1773578638.4985294,21.4,30.0,1,-4168,-84,24
1773578638.5196164,21.4,30.0,1,-4168,-84,24
1773578638.5404985,21.4,30.0,1,-4168,-84,24
1773578638.5619822,21.4,30.0,0,-4208,-76,116
1773578638.582292,21.4,30.0,0,-4208,-76,116
1773578638.602662,21.4,30.0,0,-4160,-132,-100
1773578638.6232774,21.4,30.0,0,-4160,-132,-100
1773578638.6440506,21.4,30.0,0,-4160,-132,-100
1773578638.6649525,21.4,30.0,1,-4132,-132,-24
1773578638.6851816,21.4,30.0,1,-4132,-132,-24
1773578638.705783,21.4,30.0,1,-4132,-132,-24
1773578638.7269638,21.4,30.0,0,-4204,-84,108
1773578638.747602,21.4,30.0,0,-4204,-84,108
1773578638.768617,21.4,30.0,0,-4164,-116,-20
1773578638.7893713,21.4,30.0,0,-4164,-116,-20
1773578638.8101585,21.4,30.0,0,-4164,-116,-20
1773578638.8308845,21.4,30.0,1,-4108,-144,-84
1773578638.854171,21.4,30.0,1,-4108,-144,-84
1773578638.875436,21.4,30.0,1,-4184,-104,8
1773578638.89621,21.4,30.0,1,-4184,-104,8
1773578638.9173892,21.4,30.0,1,-4184,-104,8
1773578638.9382463,21.4,30.0,0,-4196,-96,84
1773578638.958915,21.4,30.0,0,-4196,-96,84
1773578638.9794497,21.4,30.0,1,-4144,-104,-84
1773578639.0002081,21.4,30.0,1,-4144,-104,-84
1773578639.0204198,21.4,30.0,1,-4144,-104,-84
1773578639.041276,21.4,30.0,1,-4176,-132,-52
1773578639.061888,21.4,30.0,1,-4176,-132,-52
1773578639.0825129,21.4,30.0,1,-4228,-84,112
1773578639.102915,21.4,30.0,1,-4228,-84,112
1773578639.123651,21.4,30.0,1,-4228,-84,112
1773578639.1442235,21.4,30.0,1,-4156,-72,-60
1773578639.1646795,21.4,30.0,1,-4156,-72,-60
1773578639.1858146,21.4,30.0,1,-4092,-124,-80
1773578639.2060473,21.4,30.0,1,-4092,-124,-80
1773578639.2271593,21.4,30.0,1,-4092,-124,-80
1773578639.248213,21.4,30.0,1,-4196,-100,80
1773578639.270113,21.4,30.0,1,-4196,-100,80
1773578639.2907016,21.4,30.0,0,-4204,-104,24
1773578639.3116531,21.4,30.0,0,-4204,-104,24
1773578639.3324018,21.4,30.0,0,-4204,-104,24
1773578639.3534074,21.4,30.0,1,-4144,-144,-92
1773578639.373941,21.4,30.0,1,-4144,-144,-92
1773578639.3944147,21.4,30.0,1,-4144,-144,-92
1773578639.4152505,21.4,30.0,1,-4216,-84,40
1773578639.4375637,21.4,30.0,1,-4216,-84,40
1773578639.4580288,21.4,30.0,0,-4208,-84,108
1773578639.4788542,21.4,30.0,0,-4208,-84,108
1773578639.4993165,21.4,30.0,0,-4208,-84,108
1773578639.5199268,21.4,30.0,1,-4140,-108,-60
1773578639.5403812,21.4,30.0,1,-4140,-108,-60
1773578639.5609992,21.4,30.0,1,-4116,-108,-72
1773578639.5812654,21.4,30.0,1,-4116,-108,-72
1773578639.602948,21.4,30.0,1,-4116,-108,-72
1773578639.6231372,21.4,30.0,1,-4212,-76,64
1773578639.6436572,21.4,30.0,1,-4212,-76,64
1773578639.6642616,21.4,30.0,1,-4188,-120,24
1773578639.6878028,21.4,30.0,1,-4188,-120,24
1773578639.708569,21.4,30.0,1,-4188,-120,24
1773578639.7293534,21.4,30.0,1,-4124,-116,-88
1773578639.7499857,21.4,30.0,1,-4124,-116,-88
1773578639.770876,21.4,30.0,1,-4208,-112,0
1773578639.7914362,21.4,30.0,1,-4208,-112,0
1773578639.8121996,21.4,30.0,1,-4208,-112,0
1773578639.8325346,21.4,30.0,0,-4216,-80,68
1773578639.8533008,21.4,30.0,0,-4216,-80,68
1773578639.874885,21.4,30.0,1,-4140,-116,-88
1773578639.8956654,21.4,30.0,1,-4140,-116,-88
1773578639.9161322,21.4,30.0,1,-4140,-116,-88
1773578639.9368138,21.4,30.0,1,-4128,-144,-68
1773578639.9571602,21.4,30.0,1,-4128,-144,-68
1773578639.977972,21.4,30.0,1,-4128,-144,-68
1773578639.9981935,21.4,30.0,1,-4204,-88,124
1773578640.0189898,21.4,30.0,1,-4204,-88,124
1773578640.0408692,21.4,30.0,1,-4204,-88,124
1773578640.0613039,21.4,30.0,1,-4172,-104,24
1773578640.0820332,21.4,30.0,1,-4172,-104,24
1773578640.1024702,21.4,30.0,1,-4172,-104,24
1773578640.123316,21.4,30.0,0,-4220,-56,96
1773578640.1437771,21.4,30.0,0,-4220,-56,96
1773578640.1641815,21.4,30.0,0,-4124,-156,-80
1773578640.1862876,21.4,30.0,0,-4124,-156,-80
1773578640.2067752,21.4,30.0,0,-4124,-156,-80
1773578640.227188,21.4,30.0,1,-4128,-112,-28
1773578640.247506,21.4,30.0,1,-4128,-112,-28
1773578640.26797,21.4,30.0,1,-4128,-112,-28
1773578640.2886968,21.4,30.0,1,-4196,-96,52
1773578640.3089938,21.4,30.0,1,-4196,-96,52
1773578640.3292403,21.4,30.0,0,-4172,-104,12
1773578640.350021,21.4,30.0,0,-4172,-104,12
1773578640.3706245,21.4,30.0,0,-4172,-104,12
1773578640.3913915,21.4,30.0,1,-4144,-128,-84
1773578640.4123795,21.4,30.0,1,-4144,-128,-84
1773578640.4329412,21.4,30.0,1,-4176,-96,0
1773578640.4533002,21.4,30.0,1,-4176,-96,0
1773578640.4771066,21.4,30.0,1,-4176,-96,0
1773578640.4979322,21.4,30.0,1,-4220,-64,96
1773578640.5196617,21.4,30.0,1,-4220,-64,96
1773578640.5399082,21.4,30.0,1,-4160,-120,-104
1773578640.5605857,21.4,30.0,1,-4160,-120,-104
1773578640.5810328,21.4,30.0,1,-4160,-120,-104
1773578640.6031547,21.4,30.0,1,-4128,-104,-36
1773578640.6240225,21.4,30.0,1,-4128,-104,-36
1773578640.6447575,21.4,30.0,1,-4212,-96,112
1773578640.6651616,21.4,30.0,1,-4212,-96,112
1773578640.6859396,21.4,30.0,1,-4212,-96,112
1773578640.7065675,21.4,30.0,0,-4196,-128,-40
1773578640.727517,21.4,30.0,0,-4196,-128,-40
1773578640.7477868,21.4,30.0,1,-4116,-136,-92
1773578640.7691455,21.4,30.0,1,-4116,-136,-92
1773578640.789913,21.4,30.0,1,-4116,-136,-92
1773578640.810753,21.4,30.0,1,-4232,-96,80
1773578640.8315454,21.4,30.0,1,-4232,-96,80
1773578640.8525193,21.4,30.0,1,-4232,-96,80
1773578640.8730502,21.4,30.0,0,-4216,-72,64
1773578640.8942947,21.4,30.0,0,-4216,-72,64
1773578640.9148183,21.4,30.0,1,-4124,-156,-84
1773578640.9362247,21.4,30.0,1,-4124,-156,-84
1773578640.9569576,21.4,30.0,1,-4124,-156,-84
1773578640.9778805,21.4,30.0,1,-4180,-116,-4
1773578640.9990275,21.4,30.0,1,-4180,-116,-4
1773578641.0193512,21.4,30.0,1,-4200,-88,100
1773578641.0400076,21.4,30.0,1,-4200,-88,100
1773578641.0604,21.4,30.0,1,-4200,-88,100
1773578641.0814347,21.4,30.0,1,-4152,-120,-44
1773578641.1020787,21.4,30.0,1,-4152,-120,-44
1773578641.1225615,21.4,30.0,1,-4116,-108,-100
1773578641.1430318,21.4,30.0,1,-4116,-108,-100
1773578641.1638832,21.4,30.0,1,-4116,-108,-100
1773578641.1868875,21.4,30.0,1,-4200,-100,100
1773578641.2072845,21.4,30.0,1,-4200,-100,100
1773578641.2281675,21.4,30.0,0,-4200,-92,36
1773578641.2484956,21.4,30.0,0,-4200,-92,36
1773578641.26923,21.4,30.0,0,-4200,-92,36
1773578641.2897365,21.4,30.0,1,-4116,-128,-88
1773578641.3107522,21.4,30.0,1,-4116,-128,-88
1773578641.3311586,21.4,30.0,1,-4168,-120,60
1773578641.3525136,21.4,30.0,1,-4168,-120,60
1773578641.3729706,21.4,30.0,1,-4168,-120,60
1773578641.3935428,21.4,30.0,1,-4204,-56,100
1773578641.414052,21.4,30.0,1,-4204,-56,100
1773578641.434581,21.4,30.0,1,-4204,-56,100
1773578641.4551442,21.4,30.0,1,-4148,-148,-68
1773578641.4759734,21.4,30.0,1,-4148,-148,-68
1773578641.496402,21.4,30.0,1,-4124,-128,-20
1773578641.5172887,21.4,30.0,1,-4124,-128,-20
1773578641.5379376,21.4,30.0,1,-4124,-128,-20
1773578641.5587285,21.4,30.0,1,-4236,-76,124
1773578641.5795665,21.4,30.0,1,-4236,-76,124
1773578641.6004694,21.4,30.0,1,-4172,-116,-20
1773578641.6208825,21.4,30.0,1,-4172,-116,-20
1773578641.6415923,21.4,30.0,1,-4172,-116,-20
1773578641.6620696,21.4,30.0,1,-4136,-148,-104
1773578641.6833403,21.4,30.0,1,-4136,-148,-104
1773578641.7038078,21.4,30.0,1,-4188,-104,40
1773578641.7250051,21.4,30.0,1,-4188,-104,40
1773578641.7457354,21.4,30.0,1,-4188,-104,40
1773578641.7661738,21.4,30.0,1,-4204,-124,56
1773578641.7872522,21.4,30.0,1,-4204,-124,56
1773578641.8085332,21.4,30.0,1,-4128,-164,-132
1773578641.829372,21.4,30.0,1,-4128,-164,-132
1773578641.8504503,21.4,30.0,1,-4128,-164,-132
1773578641.8711975,21.4,30.0,1,-4156,-88,-44
1773578641.8919513,21.4,30.0,1,-4156,-88,-44
1773578641.9123263,21.4,30.0,1,-4156,-88,-44
1773578641.9339638,21.4,30.0,0,-4224,-96,116
1773578641.9544184,21.4,30.0,0,-4224,-96,116
1773578641.9748974,21.4,30.0,1,-4184,-96,-80
1773578641.9962194,21.4,30.0,1,-4184,-96,-80
1773578642.01691,21.4,30.0,1,-4184,-96,-80
1773578642.0377004,21.4,30.0,1,-4124,-140,-108
1773578642.0582259,21.4,30.0,1,-4124,-140,-108
1773578642.0787597,21.4,30.0,1,-4124,-140,-108
1773578642.0992806,21.4,30.0,1,-4160,-136,-88
1773578642.1201568,21.4,30.0,1,-4160,-136,-88
1773578642.1414897,21.4,30.0,1,-4160,-136,-88
1773578642.1620874,21.4,30.0,1,-4116,-120,-16
1773578642.1843462,21.4,30.0,1,-4116,-120,-16
1773578642.2048461,21.4,30.0,1,-4240,-68,152
1773578642.225473,21.4,30.0,1,-4240,-68,152
1773578642.246708,21.4,30.0,1,-4240,-68,152
1773578642.2686994,21.4,30.0,0,-4164,-100,-12
1773578642.2895834,21.4,30.0,0,-4164,-100,-12
1773578642.3100255,21.4,30.0,1,-4140,-132,-84
1773578642.3309076,21.4,30.0,1,-4140,-132,-84
1773578642.3513029,21.4,30.0,1,-4140,-132,-84
1773578642.3719797,21.4,30.0,1,-4212,-104,48
1773578642.392535,21.4,30.0,1,-4212,-104,48
1773578642.4130592,21.4,30.0,1,-4212,-104,48
1773578642.433842,21.4,30.0,1,-4192,-104,56
1773578642.4546301,21.4,30.0,1,-4192,-104,56
1773578642.4751942,21.4,30.0,1,-4124,-120,-124
1773578642.4959066,21.4,30.0,1,-4124,-120,-124
1773578642.5162833,21.4,30.0,1,-4124,-120,-124
1773578642.5366726,21.4,30.0,1,-4176,-112,-44
1773578642.5572476,21.4,30.0,1,-4176,-112,-44
1773578642.5775661,21.4,30.0,0,-4220,-108,132
1773578642.5985937,21.4,30.0,0,-4220,-108,132
1773578642.6191506,21.4,30.0,0,-4220,-108,132
1773578642.6394033,21.4,30.0,1,-4196,-132,-48
1773578642.6601982,21.4,30.0,1,-4196,-132,-48
1773578642.680803,21.4,30.0,1,-4196,-132,-48
1773578642.7014103,21.4,30.0,1,-4124,-132,-92
1773578642.7220387,21.4,30.0,1,-4124,-132,-92
1773578642.7423286,21.4,30.0,1,-4216,-80,88
1773578642.7625878,21.4,30.0,1,-4216,-80,88
1773578642.7828784,21.4,30.0,1,-4216,-80,88
1773578642.8035603,21.4,30.0,0,-4184,-128,-16
1773578642.8242786,21.4,30.0,0,-4184,-128,-16
1773578642.8448508,21.4,30.0,1,-4112,-128,-104
1773578642.8656597,21.4,30.0,1,-4112,-128,-104
1773578642.8862288,21.4,30.0,1,-4112,-128,-104
1773578642.907027,21.4,30.0,1,-4192,-116,52
1773578642.9275,21.4,30.0,1,-4192,-116,52
1773578642.9481091,21.4,30.0,1,-4228,-100,80
1773578642.96835,21.4,30.0,1,-4228,-100,80
1773578642.988728,21.4,30.0,1,-4228,-100,80
1773578643.010251,21.4,30.0,1,-4128,-124,-88
1773578643.0312169,21.4,30.0,1,-4128,-124,-88
1773578643.0514832,21.4,30.0,1,-4128,-124,-88
1773578643.0719874,21.4,30.0,1,-4152,-120,-36
1773578643.092235,21.4,30.0,1,-4152,-120,-36
1773578643.112951,21.4,30.0,1,-4208,-84,124
1773578643.1333017,21.4,30.0,1,-4208,-84,124
1773578643.1535816,21.4,30.0,1,-4208,-84,124
1773578643.1738317,21.4,30.0,0,-4156,-120,20
1773578643.1944149,21.4,30.0,0,-4156,-120,20
1773578643.2148974,21.4,30.0,1,-4112,-116,-76
1773578643.2352495,21.4,30.0,1,-4112,-116,-76
1773578643.2555065,21.4,30.0,1,-4112,-116,-76
1773578643.2759206,21.4,30.0,1,-4176,-80,44
1773578643.2961726,21.4,30.0,1,-4176,-80,44
1773578643.3167903,21.4,30.0,1,-4176,-80,44
1773578643.337334,21.4,30.0,0,-4208,-84,80
1773578643.357623,21.4,30.0,0,-4208,-84,80
1773578643.378376,21.4,30.0,1,-4116,-144,-100
1773578643.3988063,21.4,30.0,1,-4116,-144,-100
1773578643.4193485,21.4,30.0,1,-4116,-144,-100
1773578643.4400496,21.4,30.0,1,-4144,-108,0
1773578643.4605136,21.4,30.0,1,-4144,-108,0
1773578643.4807887,21.4,30.0,1,-4236,-60,132
1773578643.5011308,21.4,30.0,1,-4236,-60,132
1773578643.5217137,21.4,30.0,1,-4236,-60,132
1773578643.5421107,21.4,30.0,1,-4136,-144,-56
1773578643.562523,21.4,30.0,1,-4136,-144,-56
1773578643.5833697,21.4,30.0,1,-4112,-124,-36
1773578643.6040769,21.4,30.0,1,-4112,-124,-36
1773578643.624815,21.4,30.0,1,-4112,-124,-36
1773578643.6450827,21.4,30.0,1,-4204,-108,72
1773578643.665622,21.4,30.0,1,-4204,-108,72
1773578643.686193,21.4,30.0,1,-4204,-108,72
1773578643.706883,21.4,30.0,0,-4172,-108,24
1773578643.7271163,21.4,30.0,0,-4172,-108,24
1773578643.7476735,21.4,30.0,1,-4152,-144,-100
1773578643.7691395,21.4,30.0,1,-4152,-144,-100
1773578643.7894812,21.4,30.0,1,-4152,-144,-100
1773578643.8103132,21.4,30.0,1,-4196,-112,-4
1773578643.8305755,21.4,30.0,1,-4196,-112,-4
1773578643.8511791,21.4,30.0,0,-4196,-72,116
1773578643.8713653,21.4,30.0,0,-4196,-72,116
1773578643.8917549,21.4,30.0,0,-4196,-72,116
1773578643.911979,21.4,30.0,1,-4172,-128,-72
1773578643.9324758,21.4,30.0,1,-4172,-128,-72
1773578643.9529974,21.4,30.0,1,-4172,-128,-72
1773578643.973487,21.4,30.0,1,-4152,-136,-72
1773578643.9938326,21.4,30.0,1,-4152,-136,-72
1773578644.0142937,21.4,30.0,1,-4192,-52,104
1773578644.034899,21.4,30.0,1,-4192,-52,104
1773578644.0553222,21.4,30.0,1,-4192,-52,104
1773578644.0757234,21.4,30.0,1,-4172,-124,-24
1773578644.0962026,21.4,30.0,1,-4172,-124,-24
1773578644.116694,21.4,30.0,1,-4172,-124,-24
1773578644.137151,21.4,30.0,1,-4172,-124,-24
1773578644.1576796,21.4,30.0,1,-4220,-92,120
1773578644.177957,21.4,30.0,1,-4220,-92,120
1773578644.1985586,21.4,30.0,0,-4136,-136,-64
1773578644.2189167,21.4,30.0,0,-4136,-136,-64
1773578644.2396069,21.4,30.0,0,-4136,-136,-64
1773578644.2604504,21.4,30.0,1,-4140,-120,-48
1773578644.2809243,21.4,30.0,1,-4140,-120,-48
1773578644.3013647,21.4,30.0,1,-4204,-84,72
1773578644.3218493,21.4,30.0,1,-4204,-84,72
1773578644.3425155,21.4,30.0,1,-4204,-84,72
1773578644.3630087,21.4,30.0,0,-4172,-104,20
1773578644.3837225,21.4,30.0,0,-4172,-104,20
1773578644.4043105,21.4,30.0,1,-4132,-160,-112
1773578644.4247036,21.4,30.0,1,-4132,-160,-112
1773578644.445001,21.4,30.0,1,-4132,-160,-112
1773578644.4653847,21.4,30.0,1,-4184,-104,8
1773578644.4860046,21.4,30.0,1,-4184,-104,8
1773578644.5068252,21.4,30.0,1,-4184,-104,8
1773578644.5277143,21.4,30.0,0,-4208,-68,96
1773578644.548246,21.4,30.0,0,-4208,-68,96
1773578644.5683904,21.4,30.0,1,-4164,-140,-116
1773578644.5890036,21.4,30.0,1,-4164,-140,-116
1773578644.6096978,21.4,30.0,1,-4164,-140,-116
1773578644.630435,21.4,30.0,1,-4144,-144,-72
1773578644.6510978,21.4,30.0,1,-4144,-144,-72
1773578644.6716595,21.4,30.0,1,-4204,-84,100
1773578644.6920748,21.4,30.0,1,-4204,-84,100
1773578644.7131104,21.4,30.0,1,-4204,-84,100
1773578644.7335596,21.4,30.0,0,-4180,-104,-40
1773578644.7540286,21.4,30.0,0,-4180,-104,-40
1773578644.7744672,21.4,30.0,0,-4180,-104,-40
1773578644.7947989,21.4,30.0,1,-4148,-148,-104
1773578644.8154373,21.4,30.0,1,-4148,-148,-104
1773578644.8365526,21.4,30.0,1,-4208,-80,76
1773578644.8571897,21.4,30.0,1,-4208,-80,76
1773578644.8777108,21.4,30.0,1,-4208,-80,76
1773578644.8978975,21.4,30.0,1,-4212,-72,52
1773578644.9181952,21.4,30.0,1,-4212,-72,52
1773578644.9386566,21.4,30.0,1,-4112,-128,-72
1773578644.9591627,21.4,30.0,1,-4112,-128,-72
1773578644.9802537,21.4,30.0,1,-4112,-128,-72
1773578645.000973,21.4,30.0,1,-4172,-112,0
1773578645.0214615,21.4,30.0,1,-4172,-112,0
1773578645.0418553,21.4,30.0,1,-4208,-84,120
1773578645.0623202,21.4,30.0,1,-4208,-84,120
1773578645.0828834,21.4,30.0,1,-4208,-84,120
1773578645.1035542,21.4,30.0,1,-4140,-132,-28
1773578645.1243172,21.4,30.0,1,-4140,-132,-28
1773578645.1449368,21.4,30.0,1,-4140,-132,-28
1773578645.1657557,21.4,30.0,1,-4128,-128,-64
1773578645.1861458,21.4,30.0,1,-4128,-128,-64
1773578645.2064767,21.4,30.0,1,-4228,-68,116
1773578645.2270644,21.4,30.0,1,-4228,-68,116
1773578645.2476141,21.4,30.0,1,-4228,-68,116
1773578645.2690785,21.4,30.0,0,-4204,-108,24
1773578645.2901266,21.4,30.0,0,-4204,-108,24
1773578645.3106422,21.4,30.0,1,-4120,-160,-108
1773578645.3313167,21.4,30.0,1,-4120,-160,-108
1773578645.3517096,21.4,30.0,1,-4120,-160,-108
1773578645.3723264,21.4,30.0,1,-4172,-112,32
1773578645.3930404,21.4,30.0,1,-4172,-112,32
1773578645.4132247,21.4,30.0,1,-4216,-84,116
1773578645.4339762,21.4,30.0,1,-4216,-84,116
1773578645.4545062,21.4,30.0,1,-4216,-84,116
1773578645.4748974,21.4,30.0,1,-4160,-92,-84
1773578645.4953794,21.4,30.0,1,-4160,-92,-84
1773578645.5159717,21.4,30.0,1,-4160,-92,-84
1773578645.5365546,21.4,30.0,1,-4148,-144,-40
1773578645.5570176,21.4,30.0,1,-4148,-144,-40
1773578645.5774024,21.4,30.0,0,-4216,-60,132
1773578645.597999,21.4,30.0,0,-4216,-60,132
1773578645.618422,21.4,30.0,0,-4216,-60,132
1773578645.6389606,21.4,30.0,1,-4156,-112,-32
1773578645.659602,21.4,30.0,1,-4156,-112,-32
1773578645.6799977,21.4,30.0,1,-4148,-136,-76
1773578645.700211,21.4,30.0,1,-4148,-136,-76
1773578645.7206552,21.4,30.0,1,-4148,-136,-76
1773578645.7412772,21.4,30.0,1,-4196,-88,44
1773578645.7618968,21.4,30.0,1,-4196,-88,44
1773578645.782269,21.4,30.0,1,-4196,-88,44
1773578645.8028085,21.4,30.0,1,-4212,-116,92
1773578645.823423,21.4,30.0,1,-4212,-116,92
1773578645.8441513,21.4,30.0,1,-4132,-116,-108
1773578645.864495,21.4,30.0,1,-4132,-116,-108
1773578645.8862853,21.4,30.0,1,-4132,-116,-108
1773578645.9070537,21.4,30.0,1,-4164,-112,-32
1773578645.927343,21.4,30.0,1,-4164,-112,-32
1773578645.947702,21.4,30.0,1,-4240,-84,108
1773578645.9693751,21.4,30.0,1,-4240,-84,108
1773578645.9908168,21.4,30.0,1,-4240,-84,108
1773578646.0110943,21.4,30.0,1,-4180,-124,-80
1773578646.0323496,21.4,30.0,1,-4180,-124,-80
1773578646.0531769,21.4,30.0,1,-4120,-124,-84
1773578646.0736718,21.4,30.0,1,-4120,-124,-84
1773578646.0941794,21.4,30.0,1,-4120,-124,-84
1773578646.1148033,21.4,30.0,1,-4200,-80,108
1773578646.138816,21.4,30.0,1,-4200,-80,108
1773578646.1597285,21.4,30.0,1,-4200,-80,108
1773578646.180356,21.3,30.0,1,-4152,-128,16
1773578646.200686,21.3,30.0,1,-4152,-128,16
1773578646.2209895,21.3,30.0,1,-4152,-128,16
1773578646.2413354,21.3,30.0,1,-4216,-64,100
1773578646.2615976,21.3,30.0,1,-4216,-64,100
1773578646.2818582,21.3,30.0,1,-4216,-64,100
1773578646.3024094,21.3,30.0,0,-4168,-140,-24
1773578646.3230212,21.3,30.0,0,-4168,-140,-24
1773578646.3437696,21.3,30.0,1,-4120,-128,-92
1773578646.3646734,21.3,30.0,1,-4120,-128,-92
1773578646.3852403,21.3,30.0,1,-4120,-128,-92
1773578646.406114,21.3,30.0,1,-4180,-76,60
1773578646.4266436,21.3,30.0,1,-4180,-76,60
1773578646.4473884,21.3,30.0,0,-4192,-100,56
1773578646.4677892,21.3,30.0,0,-4192,-100,56
1773578646.4883585,21.3,30.0,0,-4192,-100,56
1773578646.5087416,21.3,30.0,1,-4124,-148,-96
1773578646.5294485,21.3,30.0,1,-4124,-148,-96
1773578646.550123,21.3,30.0,1,-4124,-148,-96
1773578646.5706723,21.3,30.0,1,-4164,-144,-24
1773578646.592265,21.3,30.0,1,-4164,-144,-24
1773578646.6167588,21.3,30.0,1,-4216,-80,168
1773578646.6372404,21.3,30.0,1,-4216,-80,168
1773578646.6578095,21.3,30.0,1,-4172,-132,-84
1773578646.6782281,21.3,30.0,1,-4172,-132,-84
1773578646.6985967,21.3,30.0,1,-4172,-132,-84
1773578646.7190697,21.3,30.0,1,-4112,-104,-92
1773578646.7396655,21.3,30.0,1,-4112,-104,-92
1773578646.7603836,21.3,30.0,1,-4112,-104,-92
1773578646.7810838,21.3,30.0,1,-4208,-92,92
1773578646.8019366,21.3,30.0,1,-4208,-92,92
1773578646.8224604,21.3,30.0,0,-4168,-72,-12
1773578646.8431187,21.3,30.0,0,-4168,-72,-12
1773578646.8637464,21.3,30.0,0,-4168,-72,-12
1773578646.884439,21.3,30.0,1,-4124,-148,-100
1773578646.9046533,21.3,30.0,1,-4124,-148,-100
1773578646.9251864,21.3,30.0,1,-4204,-88,28
1773578646.9456801,21.3,30.0,1,-4204,-88,28
1773578646.9665165,21.3,30.0,1,-4204,-88,28
1773578646.986813,21.3,30.0,1,-4216,-80,88
1773578647.0073726,21.3,30.0,1,-4216,-80,88
1773578647.0277526,21.3,30.0,1,-4216,-80,88
1773578647.0484962,21.3,30.0,1,-4152,-136,-72
1773578647.069071,21.3,30.0,1,-4152,-136,-72
1773578647.0896544,21.3,30.0,1,-4176,-100,-32
1773578647.1100519,21.3,30.0,1,-4176,-100,-32
1773578647.1307125,21.3,30.0,1,-4176,-100,-32
1773578647.1513453,21.3,30.0,1,-4212,-88,112
1773578647.1721191,21.3,30.0,1,-4212,-88,112
1773578647.1922581,21.3,30.0,0,-4168,-120,28
1773578647.2126868,21.3,30.0,0,-4168,-120,28
1773578647.2336915,21.3,30.0,0,-4168,-120,28
1773578647.2543364,21.3,30.0,1,-4120,-124,-104
1773578647.2749097,21.3,30.0,1,-4120,-124,-104
1773578647.2955294,21.3,30.0,1,-4172,-112,92
1773578647.3159213,21.3,30.0,1,-4172,-112,92
1773578647.3363004,21.3,30.0,1,-4172,-112,92
1773578647.3569355,21.3,30.0,1,-4208,-72,104
1773578647.3773174,21.3,30.0,1,-4208,-72,104
1773578647.3977945,21.3,30.0,1,-4208,-72,104
1773578647.4182365,21.3,30.0,1,-4132,-136,-100
1773578647.4390764,21.3,30.0,1,-4132,-136,-100
1773578647.459636,21.3,30.0,1,-4132,-112,12
1773578647.48027,21.3,30.0,1,-4132,-112,12
1773578647.500885,21.3,30.0,1,-4132,-112,12
1773578647.5212553,21.3,30.0,1,-4204,-84,108
1773578647.5416722,21.3,30.0,1,-4204,-84,108
1773578647.5620687,21.3,30.0,1,-4140,-144,-56
1773578647.5828865,21.3,30.0,1,-4140,-144,-56
1773578647.6036165,21.3,30.0,1,-4140,-144,-56
1773578647.6244743,21.3,30.0,1,-4124,-120,-32
1773578647.644955,21.3,30.0,1,-4124,-120,-32
1773578647.6655636,21.3,30.0,1,-4216,-88,76
1773578647.6859133,21.3,30.0,1,-4216,-88,76
1773578647.7065191,21.3,30.0,1,-4216,-88,76
1773578647.7271626,21.3,30.0,0,-4180,-108,32
1773578647.7478843,21.3,30.0,0,-4180,-108,32
1773578647.7696764,21.3,30.0,0,-4180,-108,32
1773578647.7904587,21.3,30.0,1,-4168,-116,-112
1773578647.8110132,21.3,30.0,1,-4168,-116,-112
1773578647.8315792,21.3,30.0,1,-4184,-84,-4
1773578647.8521795,21.3,30.0,1,-4184,-84,-4
1773578647.8727,21.3,30.0,1,-4184,-84,-4
1773578647.8930268,21.3,30.0,1,-4228,-72,116
1773578647.9134643,21.3,30.0,1,-4228,-72,116
1773578647.9342146,21.3,30.0,1,-4152,-116,-76
1773578647.954866,21.3,30.0,1,-4152,-116,-76
1773578647.9755154,21.3,30.0,1,-4152,-116,-76
1773578647.9959967,21.3,30.0,1,-4136,-120,-80
1773578648.0163872,21.3,30.0,1,-4136,-120,-80
1773578648.0372171,21.3,30.0,0,-4216,-64,104
1773578648.0580192,21.3,30.0,0,-4216,-64,104
1773578648.0786598,21.3,30.0,0,-4216,-64,104
1773578648.0990644,21.3,30.0,1,-4180,-124,-68
1773578648.1203759,21.3,30.0,1,-4180,-124,-68
1773578648.1410248,21.3,30.0,1,-4180,-124,-68
1773578648.161414,21.3,30.0,1,-4136,-156,-92
1773578648.1820242,21.3,30.0,1,-4136,-156,-92
1773578648.202289,21.3,30.0,1,-4136,-156,-92
1773578648.2228508,21.3,29.9,1,-4108,-116,-72
1773578648.2434971,21.3,29.9,1,-4108,-116,-72
1773578648.2640498,21.3,29.9,1,-4108,-116,-72
1773578648.292592,21.3,29.9,1,-4164,-152,-48
1773578648.3143947,21.3,29.9,1,-4164,-152,-48
1773578648.3368182,21.3,29.9,1,-4204,-72,108
1773578648.357543,21.3,29.9,1,-4204,-72,108
1773578648.3780138,21.3,29.9,1,-4204,-72,108
1773578648.39936,21.3,29.9,0,-4188,-132,24
1773578648.4209301,21.3,29.9,0,-4188,-132,24
1773578648.4414542,21.3,29.9,1,-4124,-148,-112
1773578648.4617956,21.3,29.9,1,-4124,-148,-112
1773578648.4820242,21.3,29.9,1,-4124,-148,-112
1773578648.5030477,21.3,29.9,1,-4164,-104,88
1773578648.5234878,21.3,29.9,1,-4164,-104,88
1773578648.543812,21.3,29.9,1,-4188,-112,104
1773578648.5643718,21.3,29.9,1,-4188,-112,104
1773578648.5851293,21.3,29.9,1,-4188,-112,104
1773578648.6062055,21.3,29.9,1,-4104,-116,-72
1773578648.6270223,21.3,29.9,1,-4104,-116,-72
1773578648.6475654,21.3,29.9,1,-4136,-144,-24
1773578648.6680782,21.3,29.9,1,-4136,-144,-24
1773578648.6886046,21.3,29.9,1,-4136,-144,-24
1773578648.7089052,21.3,29.9,0,-4208,-96,88
1773578648.7296605,21.3,29.9,0,-4208,-96,88
1773578648.7500343,21.3,29.9,0,-4208,-96,88
1773578648.7705991,21.3,29.9,1,-4144,-132,-56
1773578648.7912037,21.3,29.9,1,-4144,-132,-56
1773578648.8119552,21.3,29.9,1,-4128,-100,-52
1773578648.8325493,21.3,29.9,1,-4128,-100,-52
1773578648.8527331,21.3,29.9,1,-4128,-100,-52
1773578648.8732219,21.3,29.9,1,-4232,-56,60
1773578648.893628,21.3,29.9,1,-4232,-56,60
1773578648.9140725,21.3,29.9,1,-4160,-136,36
1773578648.9345112,21.3,29.9,1,-4160,-136,36
1773578648.9554586,21.3,29.9,1,-4160,-136,36
1773578648.9758482,21.3,29.9,1,-4108,-140,-120
1773578648.9965477,21.3,29.9,1,-4108,-140,-120
1773578649.0171447,21.3,29.9,1,-4108,-140,-120
1773578649.037827,21.3,29.9,1,-4180,-100,36
1773578649.058308,21.3,29.9,1,-4180,-100,36
1773578649.0790277,21.3,29.9,1,-4220,-60,108
1773578649.0996225,21.3,29.9,1,-4220,-60,108
1773578649.1203008,21.3,29.9,1,-4220,-60,108
1773578649.1408396,21.3,29.9,0,-4140,-132,-76
1773578649.1614518,21.3,29.9,0,-4140,-132,-76
1773578649.1822603,21.3,29.9,1,-4140,-112,-56
1773578649.2029421,21.3,29.9,1,-4140,-112,-56
1773578649.2238755,21.3,29.9,1,-4140,-112,-56
1773578649.2444158,21.3,29.9,1,-4248,-68,120
1773578649.2650907,21.3,29.9,1,-4248,-68,120
1773578649.2859643,21.3,29.9,0,-4204,-100,-12
1773578649.3066292,21.3,29.9,0,-4204,-100,-12
1773578649.3274596,21.3,29.9,0,-4204,-100,-12
1773578649.3482604,21.3,29.9,1,-4128,-128,-60
1773578649.368928,21.3,29.9,1,-4128,-128,-60
1773578649.3894067,21.3,29.9,1,-4208,-88,80
1773578649.410422,21.3,29.9,1,-4208,-88,80
1773578649.430937,21.3,29.9,1,-4208,-88,80
1773578649.451617,21.3,29.9,0,-4220,-84,-4
1773578649.4720726,21.3,29.9,0,-4220,-84,-4
1773578649.4928634,21.3,29.9,0,-4220,-84,-4
1773578649.5133598,21.3,29.9,1,-4112,-132,-60
1773578649.5339289,21.3,29.9,1,-4112,-132,-60
1773578649.5545442,21.3,29.9,1,-4200,-96,24
1773578649.5749557,21.3,29.9,1,-4200,-96,24
1773578649.5955927,21.3,29.9,1,-4200,-96,24
1773578649.6162708,21.3,29.9,0,-4256,-52,56
1773578649.6367278,21.3,29.9,0,-4256,-52,56
1773578649.656974,21.3,29.9,0,-4168,-132,-4
1773578649.6771917,21.3,29.9,0,-4168,-132,-4
1773578649.6980278,21.3,29.9,0,-4168,-132,-4
1773578649.7190871,21.3,29.9,1,-4132,-132,-56
1773578649.7399843,21.3,29.9,1,-4132,-132,-56
1773578649.7605183,21.3,29.9,1,-4172,-120,96
1773578649.781213,21.3,29.9,1,-4172,-120,96
1773578649.8018026,21.3,29.9,1,-4172,-120,96
1773578649.8224506,21.3,29.9,0,-4216,-92,40
1773578649.8431866,21.3,29.9,0,-4216,-92,40
1773578649.8638902,21.3,29.9,0,-4216,-92,40
1773578649.8853276,21.3,29.9,1,-4056,-148,-96
1773578649.905803,21.3,29.9,1,-4056,-148,-96
1773578649.9264762,21.3,29.9,1,-4136,-128,56
1773578649.946891,21.3,29.9,1,-4136,-128,56
1773578649.967343,21.3,29.9,1,-4136,-128,56
1773578649.9878058,21.3,29.9,1,-4260,-60,92
1773578650.0085785,21.3,29.9,1,-4260,-60,92
1773578650.0292919,21.3,29.9,1,-4112,-116,-60
1773578650.0498533,21.3,29.9,1,-4112,-116,-60
1773578650.070457,21.3,29.9,1,-4112,-116,-60
1773578650.0908208,21.3,29.9,1,-4136,-100,-24
1773578650.111556,21.3,29.9,1,-4136,-100,-24
1773578650.1319287,21.3,29.9,1,-4212,-76,92
1773578650.15271,21.3,29.9,1,-4212,-76,92
1773578650.1732187,21.3,29.9,1,-4212,-76,92
1773578650.1939821,21.3,29.9,1,-4164,-92,-16
1773578650.2143154,21.3,29.9,1,-4164,-92,-16
1773578650.2350643,21.3,29.9,1,-4164,-92,-16
1773578650.2556417,21.3,29.9,1,-4164,-92,-16
1773578650.2758136,21.3,29.9,0,-4232,-132,88
1773578650.296661,21.3,29.9,0,-4232,-132,88
1773578650.3169062,21.3,29.9,1,-4164,-100,-32
1773578650.3373935,21.3,29.9,1,-4164,-100,-32
1773578650.358034,21.3,29.9,1,-4164,-100,-32
1773578650.3807855,21.3,29.9,1,-4128,-128,-72
1773578650.4049518,21.3,29.9,1,-4128,-128,-72
1773578650.4254708,21.3,29.9,1,-4164,-60,84
1773578650.4463284,21.3,29.9,1,-4164,-60,84
1773578650.4669135,21.3,29.9,1,-4164,-60,84
1773578650.4875557,21.3,29.9,1,-4200,-124,16
1773578650.507824,21.3,29.9,1,-4200,-124,16
1773578650.5280101,21.3,29.9,1,-4084,-120,-72
1773578650.5482495,21.3,29.9,1,-4084,-120,-72
1773578650.5686197,21.3,29.9,1,-4084,-120,-72
1773578650.5893059,21.3,29.9,1,-4160,-52,76
1773578650.6098,21.3,29.9,1,-4160,-52,76
1773578650.6301115,21.3,29.9,1,-4160,-52,76
1773578650.6504064,21.3,29.9,0,-4232,-108,64
1773578650.671219,21.3,29.9,0,-4232,-108,64
1773578650.6917994,21.3,29.9,1,-4120,-104,-36
1773578650.714617,21.3,29.9,1,-4120,-104,-36
1773578650.7352188,21.3,29.9,1,-4120,-104,-36
1773578650.7560976,21.3,29.9,1,-4128,-120,-16
1773578650.7769547,21.3,29.9,1,-4128,-120,-16
1773578650.7975712,21.3,29.9,1,-4208,-56,88
1773578650.8182495,21.3,29.9,1,-4208,-56,88
1773578650.839011,21.3,29.9,1,-4208,-56,88
1773578650.859545,21.3,29.9,1,-4172,-72,-40
1773578650.879844,21.3,29.9,1,-4172,-72,-40
1773578650.9006236,21.3,29.9,1,-4088,-128,-68
1773578650.9210496,21.3,29.9,1,-4088,-128,-68
1773578650.941279,21.3,29.9,1,-4088,-128,-68
1773578650.9619896,21.3,29.9,1,-4204,-104,16
1773578650.9821427,21.3,29.9,1,-4204,-104,16
1773578651.0030484,21.3,29.9,1,-4204,-104,16
1773578651.0237205,21.3,29.9,0,-4208,-124,56
1773578651.044128,21.3,29.9,0,-4208,-124,56
1773578651.0647776,21.3,29.9,1,-4152,-116,-60
1773578651.0857906,21.3,29.9,1,-4152,-116,-60
1773578651.1062155,21.3,29.9,1,-4152,-116,-60
1773578651.1269705,21.3,29.9,1,-4144,-124,-12
1773578651.1475966,21.3,29.9,1,-4144,-124,-12
1773578651.1687615,21.3,29.9,1,-4220,-76,88
1773578651.1892798,21.3,29.9,1,-4220,-76,88
1773578651.2097814,21.3,29.9,1,-4220,-76,88
1773578651.230488,21.3,29.9,1,-4200,-104,-48
1773578651.2520938,21.3,29.9,1,-4200,-104,-48
1773578651.27233,21.3,29.9,1,-4136,-136,-44
1773578651.2929661,21.3,29.9,1,-4136,-136,-44
1773578651.3134713,21.3,29.9,1,-4136,-136,-44
1773578651.3338778,21.3,29.9,1,-4208,-56,76
1773578651.3542295,21.3,29.9,1,-4208,-56,76
1773578651.3751647,21.3,29.9,1,-4208,-56,76
1773578651.3957634,21.3,29.9,0,-4228,-92,-4
1773578651.4162183,21.3,29.9,0,-4228,-92,-4
1773578651.4368188,21.3,29.9,1,-4132,-128,-68
1773578651.457332,21.3,29.9,1,-4132,-128,-68
1773578651.4780424,21.3,29.9,1,-4132,-128,-68
1773578651.4985862,21.3,29.9,1,-4172,-128,28
1773578651.5197852,21.3,29.9,1,-4172,-128,28
1773578651.5405295,21.3,29.9,1,-4216,-108,28
1773578651.5610642,21.3,29.9,1,-4216,-108,28
1773578651.5840967,21.3,29.9,1,-4216,-108,28
1773578651.6046784,21.3,29.9,1,-4152,-136,-44
1773578651.625407,21.3,29.9,1,-4152,-136,-44
1773578651.6459491,21.3,29.9,1,-4144,-124,-60
1773578651.6661613,21.3,29.9,1,-4144,-124,-60
1773578651.686631,21.3,29.9,1,-4144,-124,-60
1773578651.707285,21.3,29.9,1,-4200,-104,88
1773578651.7277555,21.3,29.9,1,-4200,-104,88
1773578651.7483647,21.3,29.9,1,-4216,-88,-4
1773578651.76877,21.3,29.9,1,-4216,-88,-4
1773578651.7902553,21.3,29.9,1,-4216,-88,-4
1773578651.8111084,21.3,29.9,1,-4112,-116,-92
1773578651.8333654,21.3,29.9,1,-4112,-116,-92
1773578651.8537395,21.3,29.9,1,-4112,-116,-92
1773578651.8740501,21.3,29.9,1,-4180,-80,72
1773578651.8945587,21.3,29.9,1,-4180,-80,72
1773578651.915361,21.3,29.9,1,-4220,-96,56
1773578651.936075,21.3,29.9,1,-4220,-96,56
1773578651.9568331,21.3,29.9,1,-4220,-96,56
1773578651.9773526,21.3,29.9,1,-4124,-124,-48
1773578651.99755,21.3,29.9,1,-4124,-124,-48
1773578652.0183766,21.3,29.9,1,-4156,-132,4
1773578652.0388737,21.3,29.9,1,-4156,-132,4
1773578652.0593734,21.3,29.9,1,-4156,-132,4
1773578652.0798678,21.3,29.9,1,-4200,-80,64
1773578652.1002734,21.3,29.9,1,-4200,-80,64
1773578652.120413,21.3,29.9,1,-4204,-108,-28
1773578652.1408913,21.3,29.9,1,-4204,-108,-28
1773578652.1614633,21.3,29.9,1,-4204,-108,-28
1773578652.1819284,21.3,29.9,1,-4164,-108,0
1773578652.2025526,21.3,29.9,1,-4164,-108,0
1773578652.2228856,21.3,29.9,1,-4164,-108,0
1773578652.244277,21.3,29.9,1,-4216,-80,48
1773578652.2650664,21.3,29.9,1,-4216,-80,48
1773578652.2858157,21.3,29.9,1,-4216,-80,48
1773578652.306165,21.3,29.8,1,-4148,-80,-8
1773578652.3300316,21.3,29.8,1,-4148,-80,-8
1773578652.3504736,21.3,29.8,1,-4148,-80,-8
1773578652.3712304,21.3,29.8,1,-4204,-100,56
1773578652.3918343,21.3,29.8,1,-4204,-100,56
1773578652.4123158,21.3,29.8,1,-4188,-132,-12
1773578652.432826,21.3,29.8,1,-4188,-132,-12
1773578652.4532416,21.3,29.8,1,-4188,-132,-12
1773578652.4737952,21.3,29.8,1,-4148,-124,-72
1773578652.4944532,21.3,29.8,1,-4148,-124,-72
1773578652.5150409,21.3,29.8,1,-4148,-124,-72
1773578652.535189,21.3,29.8,1,-4180,-80,52
1773578652.55551,21.3,29.8,1,-4180,-80,52
1773578652.575897,21.3,29.8,1,-4236,-84,44
1773578652.5962446,21.3,29.8,1,-4236,-84,44
1773578652.6169367,21.3,29.8,1,-4236,-84,44
1773578652.6374524,21.3,29.8,1,-4108,-148,-84
1773578652.658131,21.3,29.8,1,-4108,-148,-84
1773578652.678741,21.3,29.8,1,-4092,-108,8
1773578652.699093,21.3,29.8,1,-4092,-108,8
1773578652.719982,21.3,29.8,1,-4092,-108,8
1773578652.7405412,21.3,29.8,1,-4224,-100,68
1773578652.761003,21.3,29.8,1,-4224,-100,68
1773578652.7814884,21.3,29.8,0,-4192,-144,-40
1773578652.8027446,21.3,29.8,0,-4192,-144,-40
1773578652.823371,21.3,29.8,0,-4192,-144,-40
1773578652.8437302,21.3,29.8,1,-4148,-136,-44
1773578652.8641412,21.3,29.8,1,-4148,-136,-44
1773578652.885635,21.3,29.8,1,-4148,-136,-44
1773578652.9060519,21.3,29.8,1,-4220,-80,52
1773578652.9265373,21.3,29.8,1,-4220,-80,52
1773578652.947054,21.3,29.8,0,-4172,-88,48
1773578652.9676547,21.3,29.8,0,-4172,-88,48
1773578652.9879544,21.3,29.8,0,-4172,-88,48
1773578653.0092924,21.3,29.8,1,-4132,-116,-80
1773578653.0299776,21.3,29.8,1,-4132,-116,-80
1773578653.0509038,21.3,29.8,1,-4172,-104,4
1773578653.0711803,21.3,29.8,1,-4172,-104,4
1773578653.0915236,21.3,29.8,1,-4172,-104,4
1773578653.1121345,21.3,29.8,0,-4204,-92,80
1773578653.1324496,21.3,29.8,0,-4204,-92,80
1773578653.1526308,21.3,29.8,1,-4196,-136,-52
1773578653.173146,21.3,29.8,1,-4196,-136,-52
1773578653.1936636,21.3,29.8,1,-4196,-136,-52
1773578653.2140286,21.3,29.8,1,-4180,-108,-24
1773578653.2350006,21.3,29.8,1,-4180,-108,-24
1773578653.255724,21.3,29.8,1,-4180,-108,-24
1773578653.2760968,21.3,29.8,1,-4208,-92,64
1773578653.2967434,21.3,29.8,1,-4208,-92,64
1773578653.317011,21.3,29.8,1,-4200,-100,24
1773578653.3374999,21.3,29.8,1,-4200,-100,24
1773578653.358061,21.3,29.8,1,-4200,-100,24
1773578653.378457,21.3,29.8,1,-4120,-124,-72
1773578653.399078,21.3,29.8,1,-4120,-124,-72
1773578653.420331,21.3,29.8,1,-4176,-112,36
1773578653.4409194,21.3,29.8,1,-4176,-112,36
1773578653.4612267,21.3,29.8,1,-4176,-112,36
1773578653.4816906,21.3,29.8,0,-4180,-104,60
1773578653.5021799,21.3,29.8,0,-4180,-104,60
1773578653.5274153,21.3,29.8,0,-4180,-104,60
1773578653.5489538,21.3,29.8,1,-4124,-108,-68
1773578653.570574,21.3,29.8,1,-4124,-108,-68
1773578653.5910783,21.3,29.8,1,-4184,-116,8
1773578653.6116893,21.3,29.8,1,-4184,-116,8
1773578653.6322186,21.3,29.8,1,-4232,-84,96
1773578653.653116,21.3,29.8,1,-4232,-84,96
1773578653.6739297,21.3,29.8,1,-4232,-84,96
1773578653.6945088,21.3,29.8,1,-4176,-80,-28
1773578653.7149642,21.3,29.8,1,-4176,-80,-28
1773578653.7364724,21.3,29.8,1,-4176,-80,-28
1773578653.757319,21.3,29.8,1,-4140,-144,-80
1773578653.7779799,21.3,29.8,1,-4140,-144,-80
1773578653.7983115,21.3,29.8,1,-4180,-116,44
1773578653.8194647,21.3,29.8,1,-4180,-116,44
1773578653.8397777,21.3,29.8,1,-4180,-116,44
1773578653.8602076,21.3,29.8,0,-4184,-100,44
1773578653.880792,21.3,29.8,0,-4184,-100,44
1773578653.9012127,21.3,29.8,1,-4156,-140,-96
1773578653.922389,21.3,29.8,1,-4156,-140,-96
1773578653.9429977,21.3,29.8,1,-4156,-140,-96
1773578653.9635117,21.3,29.8,1,-4172,-80,0
1773578653.9842916,21.3,29.8,1,-4172,-80,0
1773578654.0046313,21.3,29.8,0,-4224,-84,60
1773578654.0251412,21.3,29.8,0,-4224,-84,60
1773578654.045605,21.3,29.8,0,-4224,-84,60
1773578654.0676656,21.3,29.8,1,-4184,-132,-52
1773578654.0894496,21.3,29.8,1,-4184,-132,-52
1773578654.1100063,21.3,29.8,1,-4136,-108,-80
1773578654.131118,21.3,29.8,1,-4136,-108,-80
1773578654.1517289,21.3,29.8,1,-4136,-108,-80
1773578654.1722414,21.3,29.8,0,-4208,-96,96
1773578654.1926107,21.3,29.8,0,-4208,-96,96
1773578654.233082,21.3,29.8,1,-4188,-104,-48
1773578654.2683759,21.3,29.8,1,-4124,-128,-68
1773578654.2969656,21.3,29.8,1,-4124,-128,-68
1773578654.3178387,21.3,29.8,1,-4124,-128,-68
1773578654.3385026,21.3,29.8,1,-4124,-128,-68
1773578654.359114,21.3,29.7,1,-4156,-140,-8
1773578654.3800783,21.3,29.7,1,-4156,-140,-8
1773578654.4011319,21.3,29.7,1,-4120,-104,-36
1773578654.4250374,21.3,29.7,1,-4120,-104,-36
1773578654.4456294,21.3,29.7,1,-4120,-104,-36
1773578654.4661133,21.3,29.7,1,-4196,-92,92
1773578654.4865384,21.3,29.7,1,-4196,-92,92
1773578654.5070572,21.3,29.7,0,-4168,-104,20
1773578654.5273843,21.3,29.7,0,-4168,-104,20
1773578654.548703,21.3,29.7,0,-4168,-104,20
1773578654.5690658,21.3,29.7,1,-4168,-148,-68
1773578654.5949242,21.3,29.7,1,-4168,-148,-68
1773578654.6159678,21.3,29.7,1,-4168,-104,56
1773578654.6363857,21.3,29.7,1,-4168,-104,56
1773578654.6570241,21.3,29.7,1,-4168,-104,56
1773578654.6773455,21.3,29.7,0,-4200,-72,64
1773578654.6981783,21.3,29.7,0,-4200,-72,64
1773578654.7190347,21.3,29.7,1,-4132,-136,-68
1773578654.7396812,21.3,29.7,1,-4132,-136,-68
1773578654.76045,21.3,29.7,1,-4132,-136,-68
1773578654.7810342,21.3,29.7,1,-4148,-116,8
1773578654.801734,21.3,29.7,1,-4148,-116,8
1773578654.8226957,21.3,29.7,0,-4196,-76,68
1773578654.8434167,21.3,29.7,0,-4196,-76,68
1773578654.8642871,21.3,29.7,0,-4196,-76,68
1773578654.8858001,21.3,29.7,0,-4172,-96,-32
1773578654.9063976,21.3,29.7,0,-4172,-96,-32
1773578654.9270241,21.3,29.7,0,-4172,-96,-32
1773578654.9474776,21.3,29.7,1,-4148,-136,-52
1773578654.9684896,21.3,29.7,1,-4148,-136,-52
1773578654.9892251,21.3,29.7,1,-4168,-128,48
1773578655.0096896,21.3,29.7,1,-4168,-128,48
1773578655.0315661,21.3,29.7,1,-4168,-128,48
1773578655.0535445,21.3,29.7,0,-4188,-72,40
1773578655.0742319,21.3,29.7,0,-4188,-72,40
1773578655.0946825,21.3,29.7,1,-4144,-144,-84
1773578655.1153247,21.3,29.7,1,-4144,-144,-84
1773578655.135756,21.3,29.7,1,-4144,-144,-84
1773578655.1562517,21.3,29.7,1,-4144,-128,-36
1773578655.1767392,21.3,29.7,1,-4144,-128,-36
1773578655.1973946,21.3,29.7,1,-4212,-80,96
1773578655.2186117,21.3,29.7,1,-4212,-80,96
1773578655.2393372,21.3,29.7,1,-4212,-80,96
1773578655.260006,21.3,29.7,0,-4196,-76,4
1773578655.2805626,21.3,29.7,0,-4196,-76,4
1773578655.30529,21.3,29.7,0,-4156,-148,-84
1773578655.3281083,21.3,29.7,0,-4156,-148,-84
1773578655.3488135,21.3,29.7,0,-4156,-148,-84
1773578655.369141,21.3,29.7,0,-4172,-120,48
1773578655.3898132,21.3,29.7,0,-4172,-120,48
1773578655.4101217,21.3,29.7,0,-4196,-76,40
1773578655.4313562,21.3,29.7,0,-4196,-76,40
1773578655.451904,21.3,29.7,0,-4196,-76,40
1773578655.4726183,21.3,29.7,1,-4148,-132,-68
1773578655.4930832,21.3,29.7,1,-4148,-132,-68
1773578655.5133579,21.3,29.7,1,-4124,-124,-4
1773578655.53507,21.3,29.7,1,-4124,-124,-4
1773578655.5557442,21.3,29.7,1,-4124,-124,-4
1773578655.5768955,21.3,29.7,1,-4204,-84,120
1773578655.5982137,21.3,29.7,1,-4204,-84,120
1773578655.6197577,21.3,29.7,1,-4156,-112,-40
1773578655.6430113,21.3,29.7,1,-4156,-112,-40
1773578655.6652963,21.3,29.7,1,-4156,-112,-40
1773578655.6871867,21.3,29.7,1,-4160,-168,-88
1773578655.7090192,21.3,29.7,1,-4160,-168,-88
1773578655.7296932,21.3,29.7,1,-4180,-56,40
1773578655.7502756,21.3,29.7,1,-4180,-56,40
1773578655.7761354,21.3,29.7,1,-4180,-56,40
1773578655.798705,21.3,29.7,1,-4196,-104,100
1773578655.823802,21.3,29.7,1,-4196,-104,100
1773578655.8451397,21.3,29.7,1,-4164,-192,-52
1773578655.8685331,21.3,29.7,1,-4164,-192,-52
1773578655.8892713,21.3,29.7,1,-4132,-104,20
1773578655.9124641,21.3,29.7,1,-4132,-104,20
1773578655.93288,21.3,29.7,1,-4132,-104,20
1773578655.9535935,21.3,29.7,0,-4224,-120,52
1773578655.9740071,21.3,29.7,0,-4224,-120,52
1773578655.9943876,21.3,29.7,1,-4164,-140,-68
1773578656.0147607,21.3,29.7,1,-4164,-140,-68
1773578656.0357928,21.3,29.7,1,-4164,-140,-68
1773578656.0560184,21.3,29.7,1,-4168,-108,-72
1773578656.0765574,21.3,29.7,1,-4168,-108,-72
1773578656.0968106,21.3,29.7,1,-4188,-108,4
1773578656.1173637,21.3,29.7,1,-4188,-108,4
1773578656.1378071,21.3,29.7,1,-4188,-108,4
1773578656.158209,21.3,29.7,0,-4192,-128,36
1773578656.1786368,21.3,29.7,0,-4192,-128,36
1773578656.1993527,21.3,29.7,0,-4192,-128,36
1773578656.2197943,21.3,29.7,1,-4132,-112,-16
1773578656.2406628,21.3,29.7,1,-4132,-112,-16
1773578656.2612169,21.3,29.7,1,-4184,-132,-12
1773578656.2834198,21.3,29.7,1,-4184,-132,-12
1773578656.3072236,21.3,29.7,1,-4184,-132,-12
1773578656.3296628,21.3,29.7,1,-4260,-116,-4
1773578656.350947,21.3,29.7,1,-4260,-116,-4
1773578656.3723273,21.3,29.7,1,-4260,-116,-4
1773578656.393022,21.3,29.7,0,-4092,-96,-4
1773578656.4138064,21.3,29.7,0,-4092,-96,-4
1773578656.434241,21.3,29.7,0,-4092,-96,-4
1773578656.4556508,21.3,29.7,0,-4272,-84,128
1773578656.4760187,21.3,29.7,0,-4272,-84,128
1773578656.5038927,21.3,29.7,1,-4092,-144,52
1773578656.561763,21.3,29.7,1,-4092,-144,52
1773578656.5826411,21.3,29.7,0,-4100,0,56
1773578656.6066713,21.3,29.7,1,-3984,228,-236
1773578656.634147,21.3,29.7,1,-3984,228,-236
1773578656.6543136,21.3,29.7,0,-4196,-324,-36
1773578656.6749961,21.3,29.7,0,-4196,-324,-36
1773578656.695428,21.3,29.7,0,-4196,-324,-36
1773578656.7171474,21.3,29.7,1,-4356,-68,16
1773578656.737835,21.3,29.7,1,-4356,-68,16
1773578656.7602212,21.3,29.7,1,-4356,-68,16
1773578656.781466,21.3,29.7,1,-4244,92,-284
1773578656.8283274,21.3,29.7,1,-4244,92,-284
1773578656.8489072,21.3,29.7,1,-4408,-248,-168
1773578656.875692,21.3,29.7,1,-4408,-248,-168
1773578656.8961818,21.3,29.7,1,-4324,-236,176
1773578656.9172044,21.3,29.7,0,-4232,76,-64
1773578656.939629,21.3,29.7,0,-4232,76,-64
1773578656.9605377,21.3,29.7,0,-4232,76,-64
1773578656.9809668,21.3,29.7,1,-4152,-92,-8
1773578657.003289,21.3,29.7,1,-4152,-92,-8
1773578657.0238988,21.3,29.7,1,-3736,-432,-160
1773578657.044192,21.3,29.7,1,-3736,-432,-160
1773578657.0648534,21.3,29.7,1,-3736,-432,-160
1773578657.0854418,21.3,29.7,1,-4240,-500,236
1773578657.1083853,21.3,29.7,1,-4240,-500,236
1773578657.1288822,21.3,29.7,1,-4172,-116,60
1773578657.149576,21.3,29.7,1,-4172,-116,60
1773578657.1729195,21.3,29.7,1,-4172,-116,60
1773578657.1934788,21.3,29.7,1,-4112,172,-128
1773578657.2145314,21.3,29.7,1,-4112,172,-128
1773578657.2371302,21.3,29.7,1,-4452,-540,-196
1773578657.2574081,21.3,29.7,1,-4452,-540,-196
1773578657.2778893,21.3,29.7,1,-4452,-540,-196
1773578657.2984607,21.3,29.7,1,-4208,48,-196
1773578657.319805,21.3,29.7,1,-4208,48,-196
1773578657.3405864,21.3,29.7,1,-4208,48,-196
1773578657.3651369,21.3,29.7,1,-4336,36,84
1773578657.3861358,21.3,29.7,1,-4336,36,84
1773578657.4106324,21.3,29.7,1,-4200,-128,96
1773578657.4312553,21.3,29.7,1,-4200,-128,96
1773578657.4554784,21.3,29.7,1,-4160,528,-196
1773578657.476182,21.3,29.7,1,-4160,528,-196
1773578657.4984677,21.3,29.7,1,-4160,528,-196
1773578657.5193572,21.3,29.7,0,-4200,-332,160
1773578657.5408254,21.3,29.7,0,-4200,-332,160
1773578657.5642998,21.3,29.7,1,-4324,-676,-132
1773578657.594738,21.3,29.7,1,-4324,-676,-132
1773578657.6150723,21.3,29.7,1,-4148,-52,108
1773578657.6433947,21.3,29.7,1,-4148,-52,108
1773578657.6641135,21.3,29.7,1,-4032,340,80
1773578657.6945882,21.3,29.7,1,-4032,340,80
1773578657.7151623,21.3,29.7,0,-4460,-124,64
1773578657.7360718,21.3,29.7,0,-4460,-124,64
1773578657.7627318,21.3,29.7,0,-4460,-124,64
1773578657.800819,21.3,29.7,0,-4044,-256,-260
1773578657.822195,21.3,29.7,1,-4012,-156,140
1773578657.843667,21.3,29.7,1,-4012,-156,140
1773578657.8655603,21.3,29.7,1,-4012,-156,140
1773578657.8928561,21.3,29.7,0,-4140,0,180
1773578657.9135468,21.3,29.7,0,-4140,0,180
1773578657.9363961,21.3,29.7,1,-3992,-160,176
1773578657.9570315,21.3,29.7,1,-3992,-160,176
1773578657.9796212,21.3,29.7,1,-4096,-88,12
1773578658.0000615,21.3,29.7,1,-4096,-88,12
1773578658.0205102,21.3,29.7,1,-4096,-88,12
1773578658.0412226,21.3,29.7,1,-4128,-40,4
1773578658.0621505,21.3,29.7,1,-4128,-40,4
1773578658.0829644,21.3,29.7,1,-4128,-40,4
1773578658.1037068,21.3,29.7,0,-3876,-408,-100
1773578658.1243374,21.3,29.7,0,-3876,-408,-100
1773578658.1449234,21.3,29.7,1,-4248,-392,240
1773578658.1652904,21.3,29.7,1,-4248,-392,240
1773578658.18699,21.3,29.7,1,-4248,-392,240
1773578658.2080457,21.3,29.7,1,-4212,116,-8
1773578658.2284577,21.3,29.7,1,-4212,116,-8
1773578658.24987,21.3,29.7,1,-3800,-204,-728
1773578658.270557,21.3,29.7,1,-3800,-204,-728
1773578658.2912328,21.3,29.7,1,-3800,-204,-728
1773578658.3115056,21.3,29.7,0,-4140,-288,568
1773578658.3319788,21.3,29.7,0,-4140,-288,568
1773578658.3529515,21.3,29.7,1,-4112,-148,24
1773578658.3745172,21.3,29.7,1,-4112,-148,24
1773578658.3950744,21.3,29.7,1,-4112,-148,24
1773578658.415946,21.3,29.7,1,-4112,-148,24
1773578658.4364703,21.3,29.8,0,-4356,8,-36
1773578658.456995,21.3,29.8,0,-4356,8,-36
1773578658.477472,21.3,29.8,0,-4356,8,-36
1773578658.4978294,21.3,29.8,1,-4152,-208,-40
1773578658.5183487,21.3,29.8,1,-4152,-208,-40
1773578658.543002,21.3,29.8,0,-4416,-164,492
1773578658.5634928,21.3,29.8,0,-4416,-164,492
1773578658.5841687,21.3,29.8,0,-4416,-164,492
1773578658.60715,21.3,29.8,1,-4008,-448,-304
1773578658.6290698,21.3,29.8,1,-4008,-448,-304
1773578658.6496928,21.3,29.8,0,-4072,28,-132
1773578658.6730444,21.3,29.8,0,-4072,28,-132
1773578658.6940646,21.3,29.8,1,-4324,64,-56
1773578658.7143779,21.3,29.8,1,-4324,64,-56
1773578658.7356133,21.3,29.8,1,-4324,64,-56
1773578658.7561836,21.3,29.8,1,-3680,-340,-868
1773578658.7766862,21.3,29.8,1,-3680,-340,-868
1773578658.7973976,21.3,29.8,1,-3680,-340,-868
1773578658.8178358,21.3,29.8,0,-4304,-312,448
1773578658.838304,21.3,29.8,0,-4304,-312,448
1773578658.8635368,21.3,29.8,0,-4084,-212,116
1773578658.8920846,21.3,29.8,0,-4084,-212,116
1773578658.915037,21.3,29.8,0,-3708,424,-1116
1773578658.9355872,21.3,29.8,0,-3708,424,-1116
1773578658.9566746,21.3,29.8,0,-3708,424,-1116
1773578658.9784834,21.3,29.8,1,-4168,-16,-104
1773578659.0007603,21.3,29.8,1,-4168,-16,-104
1773578659.028954,21.3,29.8,0,-4072,152,80
1773578659.0532284,21.3,29.8,0,-4072,152,80
1773578659.0737529,21.3,29.8,1,-4412,-1036,84
1773578659.0943117,21.3,29.8,1,-4412,-1036,84
1773578659.114794,21.3,29.8,1,-4412,-1036,84
1773578659.1354284,21.3,29.8,1,-4280,196,316
1773578659.1567967,21.3,29.8,1,-4280,196,316
1773578659.1773264,21.3,29.8,1,-4172,-292,72
1773578659.1977844,21.3,29.8,1,-4172,-292,72
1773578659.2191465,21.3,29.8,1,-4172,-292,72
1773578659.2398827,21.3,29.8,0,-4264,484,320
1773578659.2606244,21.3,29.8,0,-4264,484,320
1773578659.2809846,21.3,29.8,1,-3836,-392,360
1773578659.303397,21.3,29.8,1,-3836,-392,360
1773578659.3238926,21.3,29.8,1,-3836,-392,360
1773578659.3443544,21.3,29.8,0,-4340,-24,-160
1773578659.3646934,21.3,29.8,0,-4340,-24,-160
1773578659.3851883,21.3,29.8,0,-4256,-444,184
1773578659.4058468,21.3,29.8,0,-4256,-444,184
1773578659.4263225,21.3,29.8,0,-4256,-444,184
1773578659.4466136,21.3,29.8,1,-4064,-500,-592
1773578659.4704688,21.3,29.8,1,-4064,-500,-592
1773578659.4909515,21.3,29.8,0,-4208,400,-36
1773578659.5114467,21.3,29.8,0,-4208,400,-36
1773578659.5318303,21.3,29.8,0,-4208,400,-36
1773578659.5525348,21.3,29.8,1,-4152,-384,-28
1773578659.57296,21.3,29.8,1,-4152,-384,-28
1773578659.594583,21.3,29.8,1,-4152,-384,-28
1773578659.6151514,21.3,29.8,0,-4212,176,120
1773578659.6430175,21.3,29.8,0,-4212,176,120
1773578659.6634078,21.3,29.8,0,-3840,-428,4
1773578659.6841285,21.3,29.8,0,-3840,-428,4
1773578659.7048523,21.3,29.8,1,-4116,32,-208
1773578659.7258372,21.3,29.8,1,-4116,32,-208
1773578659.7462628,21.3,29.8,1,-4116,32,-208
1773578659.7667005,21.3,29.8,1,-4228,-208,432
1773578659.7912164,21.3,29.8,1,-4228,-208,432
1773578659.8117537,21.3,29.8,0,-4296,-572,-104
1773578659.8320944,21.3,29.8,0,-4296,-572,-104
1773578659.8586922,21.3,29.8,0,-4296,-572,-104
1773578659.8790085,21.3,29.8,1,-4164,160,44
1773578659.8994641,21.3,29.8,1,-4164,160,44
1773578659.921188,21.3,29.8,1,-4288,-84,-20
1773578659.9417675,21.3,29.8,1,-4288,-84,-20
1773578659.9624507,21.3,29.8,1,-4288,-84,-20
1773578659.9829464,21.3,29.8,1,-4140,68,200
1773578660.003705,21.3,29.8,1,-4140,68,200
1773578660.0268943,21.3,29.8,1,-4220,232,-72
1773578660.0478911,21.3,29.8,1,-4220,232,-72
1773578660.0735497,21.3,29.8,1,-4220,232,-72
1773578660.0941079,21.3,29.8,1,-4084,16,176
1773578660.1148362,21.3,29.8,1,-4084,16,176
1773578660.1359434,21.3,29.8,1,-4268,-332,48
1773578660.1564014,21.3,29.8,1,-4268,-332,48
1773578660.1770177,21.3,29.8,1,-4268,-332,48
1773578660.197456,21.3,29.8,0,-4044,120,72
1773578660.2184489,21.3,29.8,0,-4044,120,72
1773578660.239257,21.3,29.8,0,-4128,16,28
1773578660.2599654,21.3,29.8,0,-4128,16,28
1773578660.280789,21.3,29.8,0,-4128,16,28
1773578660.3038273,21.3,29.8,0,-4348,-380,-120
1773578660.324433,21.3,29.8,0,-4348,-380,-120
1773578660.3450277,21.3,29.8,1,-4052,72,40
1773578660.3658187,21.3,29.8,1,-4052,72,40
1773578660.3875902,21.3,29.8,1,-4052,72,40
1773578660.4082806,21.3,29.8,1,-4232,-24,-84
1773578660.429278,21.3,29.8,1,-4232,-24,-84
1773578660.4499433,21.3,29.8,1,-4232,-24,-84
1773578660.4708672,21.3,29.8,0,-4036,-64,-84
1773578660.4925299,21.3,29.8,0,-4036,-64,-84
1773578660.5133114,21.3,29.8,0,-4036,-64,-84
1773578660.535592,21.3,29.8,1,-4112,-116,96
1773578660.5559366,21.3,29.8,1,-4112,-116,96
1773578660.5767827,21.3,29.8,0,-3960,-388,-84
1773578660.5976398,21.3,29.8,0,-3960,-388,-84
1773578660.6195064,21.3,29.8,0,-3960,-388,-84
1773578660.640074,21.3,29.8,1,-4396,-320,384
1773578660.660543,21.3,29.8,1,-4396,-320,384
1773578660.6810627,21.3,29.8,1,-4396,-320,384
1773578660.7027578,21.3,29.8,1,-4060,-188,-32
1773578660.7232845,21.3,29.8,1,-4060,-188,-32
1773578660.7440937,21.3,29.8,0,-4112,0,28
1773578660.7650008,21.3,29.8,0,-4112,0,28
1773578660.7857823,21.3,29.8,0,-4112,0,28
1773578660.8065047,21.3,29.8,1,-4196,-164,16
1773578660.8271542,21.3,29.8,1,-4196,-164,16
1773578660.8475857,21.3,29.8,1,-3840,-580,-228
1773578660.8687994,21.3,29.8,1,-3840,-580,-228
1773578660.8893917,21.3,29.8,1,-3840,-580,-228
1773578660.9096024,21.3,29.8,0,-4036,80,-232
1773578660.9300854,21.3,29.8,0,-4036,80,-232
1773578660.9507048,21.3,29.8,1,-4240,68,-112
1773578660.971145,21.3,29.8,1,-4240,68,-112
1773578660.9916565,21.3,29.8,1,-4240,68,-112
1773578661.0117922,21.3,29.8,1,-4216,-300,196
1773578661.032276,21.3,29.8,1,-4216,-300,196
1773578661.0525346,21.3,29.8,1,-4216,-300,196
1773578661.0761733,21.3,29.8,0,-4128,-44,36
1773578661.0967915,21.3,29.8,0,-4128,-44,36
1773578661.1178503,21.3,29.8,1,-4224,-212,-56
1773578661.1382496,21.3,29.8,1,-4224,-212,-56
1773578661.1588552,21.3,29.8,1,-4224,-212,-56
1773578661.1795194,21.3,29.8,1,-4208,-24,-260
1773578661.2008655,21.3,29.8,1,-4208,-24,-260
1773578661.2214863,21.3,29.8,0,-4084,-84,124
1773578661.2420793,21.3,29.8,0,-4084,-84,124
1773578661.2625651,21.3,29.8,0,-4084,-84,124
1773578661.28319,21.3,29.8,1,-4072,180,148
1773578661.3038867,21.3,29.8,1,-4072,180,148
1773578661.325093,21.3,29.8,0,-4196,260,220
1773578661.3455825,21.3,29.8,0,-4196,260,220
1773578661.3659084,21.3,29.8,0,-4196,260,220
1773578661.386136,21.3,29.8,1,-4064,-380,-144
1773578661.4067523,21.3,29.8,1,-4064,-380,-144
1773578661.427119,21.3,29.8,0,-4124,56,160
1773578661.4483097,21.3,29.8,0,-4124,56,160
1773578661.4686217,21.3,29.8,0,-4124,56,160
1773578661.4899454,21.3,29.8,1,-4116,-336,8
1773578661.5103793,21.3,29.8,1,-4116,-336,8
1773578661.5308204,21.3,29.8,1,-4116,-336,8
1773578661.5519812,21.3,29.8,0,-4452,-476,164
1773578661.5725517,21.3,29.8,0,-4452,-476,164
1773578661.5933287,21.3,29.8,0,-4084,-112,36
1773578661.617088,21.3,29.8,0,-4084,-112,36
1773578661.6397142,21.3,29.8,0,-4100,-36,-176
1773578661.6618006,21.3,29.8,0,-4100,-36,-176
1773578661.6823819,21.3,29.8,0,-4100,-36,-176
1773578661.703541,21.3,29.8,1,-4260,-248,108
1773578661.72396,21.3,29.8,1,-4260,-248,108
1773578661.7448018,21.3,29.8,0,-4040,-84,28
1773578661.7653704,21.3,29.8,0,-4040,-84,28
1773578661.7862198,21.3,29.8,0,-4040,-84,28
1773578661.8067296,21.3,29.8,1,-4268,152,248
1773578661.8274453,21.3,29.8,1,-4268,152,248
1773578661.8479693,21.3,29.8,1,-4268,152,248
1773578661.869191,21.3,29.8,1,-4144,-96,128
1773578661.8898149,21.3,29.8,1,-4144,-96,128
1773578661.910239,21.3,29.8,1,-4240,-192,-8
1773578661.9308789,21.3,29.8,1,-4240,-192,-8
1773578661.9534314,21.3,29.8,1,-4240,-192,-8
1773578661.9738438,21.3,29.8,0,-4208,-172,128
1773578661.9941275,21.3,29.8,0,-4208,-172,128
1773578662.0148175,21.3,29.8,1,-4060,-120,-268
1773578662.035327,21.3,29.8,1,-4060,-120,-268
1773578662.0556993,21.3,29.8,1,-4060,-120,-268
1773578662.0772667,21.3,29.8,0,-4200,144,-32
1773578662.0977676,21.3,29.8,0,-4200,144,-32
1773578662.1194162,21.3,29.8,1,-4064,-44,184
1773578662.1396885,21.3,29.8,1,-4064,-44,184
1773578662.1601417,21.3,29.8,1,-4064,-44,184
1773578662.1808152,21.3,29.8,0,-4160,-4,-64
1773578662.2012424,21.3,29.8,0,-4160,-4,-64
1773578662.2234516,21.3,29.8,1,-4112,-240,96
1773578662.2443182,21.3,29.8,1,-4112,-240,96
1773578662.2655573,21.3,29.8,1,-4112,-240,96
1773578662.2864594,21.3,29.8,0,-4160,-196,-4
1773578662.3069558,21.3,29.8,0,-4160,-196,-4
1773578662.3284454,21.3,29.8,0,-4160,-196,-4
1773578662.349536,21.3,29.8,1,-4092,188,-40
1773578662.371431,21.3,29.8,1,-4092,188,-40
1773578662.3934996,21.3,29.8,1,-4036,-360,-156
1773578662.4146378,21.3,29.8,1,-4036,-360,-156
1773578662.435492,21.3,29.8,1,-4196,-76,52
1773578662.4565268,21.3,29.8,1,-4196,-76,52
1773578662.4779353,21.3,29.8,1,-4196,-76,52
1773578662.4985235,21.3,29.8,1,-4196,-76,52
1773578662.5193698,21.3,29.9,0,-4176,-76,-104
1773578662.5397158,21.3,29.9,0,-4176,-76,-104
1773578662.5598989,21.3,29.9,0,-4176,-76,-104
1773578662.5808485,21.3,29.9,0,-4196,176,76
1773578662.604777,21.3,29.9,0,-4196,176,76
1773578662.6260118,21.3,29.9,0,-4256,-32,124
1773578662.6472766,21.3,29.9,0,-4256,-32,124
1773578662.6692638,21.3,29.9,0,-4256,-32,124
1773578662.6898944,21.3,29.9,1,-4120,-160,84
1773578662.712135,21.3,29.9,1,-4120,-160,84
1773578662.7332604,21.3,29.9,1,-4188,132,-148
1773578662.7548542,21.3,29.9,1,-4188,132,-148
1773578662.775368,21.3,29.9,1,-4188,132,-148
1773578662.795962,21.3,29.9,0,-4260,-184,72
1773578662.816927,21.3,29.9,0,-4260,-184,72
1773578662.8372307,21.3,29.9,1,-4152,-116,-32
1773578662.8581908,21.3,29.9,1,-4152,-116,-32
1773578662.8788865,21.3,29.9,1,-4152,-116,-32
1773578662.9001832,21.3,29.9,1,-4168,-32,-32
1773578662.9207394,21.3,29.9,1,-4168,-32,-32
1773578662.941376,21.3,29.9,1,-4168,-128,20
1773578662.9621272,21.3,29.9,1,-4168,-128,20
1773578662.983023,21.3,29.9,1,-4168,-128,20
1773578663.0034134,21.3,29.9,1,-4164,-32,72
1773578663.0237978,21.3,29.9,1,-4164,-32,72
1773578663.0446546,21.3,29.9,1,-4200,-196,-40
1773578663.0653636,21.3,29.9,1,-4200,-196,-40
1773578663.0870886,21.3,29.9,1,-4200,-196,-40
1773578663.107971,21.3,29.9,1,-4164,40,-124
1773578663.1286058,21.3,29.9,1,-4164,40,-124
1773578663.1489034,21.3,29.9,0,-4160,-124,72
1773578663.169129,21.3,29.9,0,-4160,-124,72
1773578663.1897519,21.3,29.9,0,-4160,-124,72
1773578663.210338,21.3,29.9,1,-4172,-148,8
1773578663.2307994,21.3,29.9,1,-4172,-148,8
1773578663.255396,21.3,29.9,1,-4172,-148,8
1773578663.279066,21.3,29.9,0,-4168,-52,-40
1773578663.2999437,21.3,29.9,0,-4168,-52,-40
1773578663.3213277,21.3,29.9,1,-4172,-112,48
1773578663.342118,21.3,29.9,1,-4172,-112,48
1773578663.3624437,21.3,29.9,1,-4164,-172,-32
1773578663.382987,21.3,29.9,1,-4164,-172,-32
1773578663.4034379,21.3,29.9,1,-4164,-172,-32
1773578663.4238644,21.3,29.9,1,-4192,-124,-52
1773578663.4442575,21.3,29.9,1,-4192,-124,-52
1773578663.4646003,21.3,29.9,1,-4192,-124,-52
1773578663.4862669,21.3,29.9,0,-4188,-156,48
1773578663.5068033,21.3,29.9,0,-4188,-156,48
1773578663.5276196,21.3,29.9,0,-4216,-136,28
1773578663.548188,21.3,29.9,0,-4216,-136,28
1773578663.569807,21.3,29.9,0,-4216,-136,28
1773578663.5904295,21.3,29.9,1,-4144,-56,-68
1773578663.6114938,21.3,29.9,1,-4144,-56,-68
1773578663.6322544,21.3,29.9,1,-4136,-72,-24
1773578663.6538396,21.3,29.9,1,-4136,-72,-24
1773578663.6745093,21.3,29.9,1,-4136,-72,-24
1773578663.6961246,21.3,29.9,1,-4188,-40,-4
1773578663.717068,21.3,29.9,1,-4188,-40,-4
1773578663.7380297,21.3,29.9,0,-4180,-160,0
1773578663.7590313,21.3,29.9,0,-4180,-160,0
1773578663.7795863,21.3,29.9,0,-4180,-160,0
1773578663.8006158,21.3,29.9,1,-4152,-104,-28
1773578663.8217943,21.3,29.9,1,-4152,-104,-28
1773578663.8424244,21.3,29.9,1,-4224,-100,20
1773578663.8627605,21.3,29.9,1,-4224,-100,20
1773578663.8835592,21.3,29.9,1,-4224,-100,20
1773578663.904774,21.3,29.9,1,-4160,-40,20
1773578663.9253054,21.3,29.9,1,-4160,-40,20
1773578663.9461372,21.3,29.9,1,-4172,-108,-20
1773578663.9667416,21.3,29.9,1,-4172,-108,-20
1773578663.9887986,21.3,29.9,1,-4172,-108,-20
1773578664.0092611,21.3,29.9,1,-4224,-88,32
1773578664.030033,21.3,29.9,1,-4224,-88,32
1773578664.0507984,21.3,29.9,1,-4224,-88,32
1773578664.0712643,21.3,29.9,0,-4176,-144,40
1773578664.091798,21.3,29.9,0,-4176,-144,40
1773578664.113246,21.3,29.9,1,-4164,-56,-44
1773578664.1342185,21.3,29.9,1,-4164,-56,-44
1773578664.1547027,21.3,29.9,1,-4164,-56,-44
1773578664.1751893,21.3,29.9,1,-4196,-164,-48
1773578664.1953475,21.3,29.9,1,-4196,-164,-48
1773578664.216082,21.3,29.9,1,-4192,-36,112
1773578664.2380493,21.3,29.9,1,-4192,-36,112
1773578664.2585578,21.3,29.9,1,-4192,-36,112
1773578664.2799523,21.3,29.9,1,-4172,-120,-4
1773578664.3005204,21.3,29.9,1,-4172,-120,-4
1773578664.3210964,21.3,29.9,1,-4172,-92,-24
1773578664.3416786,21.3,29.9,1,-4172,-92,-24
1773578664.3624082,21.3,29.9,1,-4172,-92,-24
1773578664.3827138,21.3,29.9,1,-4224,-104,76
1773578664.403177,21.3,29.9,1,-4224,-104,76
1773578664.4238985,21.3,29.9,1,-4168,-172,-12
1773578664.4444337,21.3,29.9,1,-4168,-172,-12
1773578664.4650888,21.3,29.9,1,-4168,-172,-12
1773578664.487072,21.3,29.9,1,-4200,-84,-48
1773578664.5073981,21.3,29.9,1,-4200,-84,-48
1773578664.5279732,21.3,29.9,1,-4200,-84,-48
1773578664.548196,21.3,29.9,1,-4200,-84,-48
1773578664.5694323,21.3,29.9,0,-4136,-72,48
1773578664.5900998,21.3,29.9,0,-4136,-72,48
1773578664.61139,21.3,29.9,1,-4124,-148,-60
1773578664.6324685,21.3,29.9,1,-4124,-148,-60
1773578664.6548014,21.3,29.9,1,-4124,-148,-60
1773578664.6756,21.3,29.9,1,-4200,-124,-8
1773578664.696633,21.3,29.9,1,-4200,-124,-8
1773578664.7173045,21.3,29.9,1,-4196,-84,28
1773578664.7379239,21.3,29.9,1,-4196,-84,28
1773578664.7590206,21.3,29.9,1,-4196,-84,28
1773578664.779855,21.3,29.9,1,-4188,-52,-4
1773578664.8006322,21.3,29.9,1,-4188,-52,-4
1773578664.8208406,21.3,29.9,1,-4180,-180,-64
1773578664.8412244,21.3,29.9,1,-4180,-180,-64
1773578664.8618884,21.3,29.9,1,-4180,-180,-64
1773578664.8823526,21.3,29.9,0,-4188,-44,28
1773578664.9033537,21.3,29.9,0,-4188,-44,28
1773578664.9239752,21.3,29.9,0,-4188,-44,28
1773578664.9445004,21.3,29.9,0,-4164,-136,4
1773578664.9649901,21.3,29.9,0,-4164,-136,4
1773578664.9857724,21.3,29.9,1,-4152,-100,-64
1773578665.0062585,21.3,29.9,1,-4152,-100,-64
1773578665.0264971,21.3,29.9,1,-4152,-100,-64
1773578665.047289,21.3,29.9,0,-4200,-124,56
1773578665.0678842,21.3,29.9,0,-4200,-124,56
1773578665.0886698,21.3,29.9,0,-4200,-60,28
1773578665.1094687,21.3,29.9,0,-4200,-60,28
1773578665.1298344,21.3,29.9,0,-4200,-60,28
1773578665.1501155,21.3,29.9,1,-4160,-84,-64
1773578665.1707234,21.3,29.9,1,-4160,-84,-64
1773578665.1913419,21.3,29.9,1,-4188,-80,24
1773578665.2116022,21.3,29.9,1,-4188,-80,24
1773578665.232011,21.3,29.9,1,-4188,-80,24
1773578665.2530303,21.3,29.9,0,-4188,-84,8
1773578665.2736008,21.3,29.9,0,-4188,-84,8
1773578665.2939584,21.3,29.9,0,-4188,-84,8
1773578665.3142648,21.3,29.9,1,-4148,-104,-16
1773578665.3353057,21.3,29.9,1,-4148,-104,-16
1773578665.3557606,21.3,29.9,1,-4120,-124,-72
1773578665.376039,21.3,29.9,1,-4120,-124,-72
1773578665.397157,21.3,29.9,1,-4120,-124,-72
1773578665.417733,21.3,29.9,1,-4200,-116,8
1773578665.438278,21.3,29.9,1,-4200,-116,8
1773578665.4587028,21.3,29.9,1,-4168,-128,60
1773578665.4792972,21.3,29.9,1,-4168,-128,60
1773578665.5000215,21.3,29.9,1,-4168,-128,60
1773578665.5206673,21.3,29.9,1,-4172,-116,-48
1773578665.5410194,21.3,29.9,1,-4172,-116,-48
1773578665.5613527,21.3,29.9,1,-4196,-116,0
1773578665.5815248,21.3,29.9,1,-4196,-116,0
1773578665.6031759,21.3,29.9,1,-4196,-116,0
1773578665.623747,21.3,29.9,0,-4204,-80,36
1773578665.6443934,21.3,29.9,0,-4204,-80,36
1773578665.6648157,21.3,29.9,0,-4204,-80,36
1773578665.6854768,21.3,29.9,1,-4184,-84,-28
1773578665.705846,21.3,29.9,1,-4184,-84,-28
1773578665.7263696,21.3,29.9,1,-4188,-124,-52
1773578665.7465615,21.3,29.9,1,-4188,-124,-52
1773578665.7713232,21.3,29.9,1,-4188,-124,-52
1773578665.7917385,21.3,29.9,0,-4196,-68,32
1773578665.8123562,21.3,29.9,0,-4196,-68,32
1773578665.8332667,21.3,29.9,0,-4168,-108,-12
1773578665.8563297,21.3,29.9,0,-4168,-108,-12
1773578665.8770807,21.3,29.9,0,-4168,-108,-12
1773578665.8978055,21.3,29.9,1,-4168,-124,-64
1773578665.9210634,21.3,29.9,1,-4168,-124,-64
1773578665.9418285,21.3,29.9,1,-4192,-96,52
1773578665.962197,21.3,29.9,1,-4192,-96,52
1773578665.9826357,21.3,29.9,1,-4192,-96,52
1773578666.003777,21.3,29.9,1,-4200,-112,40
1773578666.0245247,21.3,29.9,1,-4200,-112,40
1773578666.0452604,21.3,29.9,1,-4144,-76,-4
1773578666.06597,21.3,29.9,1,-4144,-76,-4
1773578666.0878744,21.3,29.9,1,-4144,-76,-4
1773578666.109044,21.3,29.9,1,-4148,-112,-28
1773578666.1300175,21.3,29.9,1,-4148,-112,-28
1773578666.1507688,21.3,29.9,0,-4208,-100,72
1773578666.175164,21.3,29.9,0,-4208,-100,72
1773578666.1959176,21.3,29.9,0,-4208,-100,72
1773578666.2163048,21.3,29.9,1,-4136,-132,-4
1773578666.23658,21.3,29.9,1,-4136,-132,-4
1773578666.257274,21.3,29.9,1,-4172,-100,-48
1773578666.2785654,21.3,29.9,1,-4172,-100,-48
1773578666.2988403,21.3,29.9,1,-4172,-100,-48
1773578666.3191476,21.3,29.9,0,-4168,-112,24
1773578666.3396626,21.3,29.9,0,-4168,-112,24
1773578666.3598568,21.3,29.9,0,-4168,-120,20
1773578666.3800814,21.3,29.9,0,-4168,-120,20
1773578666.4010594,21.3,29.9,0,-4168,-120,20
1773578666.4278083,21.3,29.9,1,-4136,-88,-52
1773578666.4495158,21.3,29.9,1,-4136,-88,-52
1773578666.4710083,21.3,29.9,1,-4168,-116,40
1773578666.4915383,21.3,29.9,1,-4168,-116,40
1773578666.5121653,21.3,29.9,1,-4168,-116,40
1773578666.5331738,21.3,29.9,0,-4196,-64,76
1773578666.5533254,21.3,29.9,0,-4196,-64,76
1773578666.5736942,21.3,29.9,0,-4196,-64,76
1773578666.5938656,21.3,29.9,1,-4168,-96,32
1773578666.6152284,21.3,29.9,1,-4168,-96,32
1773578666.635609,21.3,29.9,1,-4168,-96,32
1773578666.6562822,21.3,29.9,1,-4220,-124,32
1773578666.6768012,21.3,29.9,1,-4220,-124,32
1773578666.697207,21.3,29.9,1,-4220,-124,32
1773578666.7192404,21.3,29.9,1,-4168,-84,-48
1773578666.7403624,21.3,29.9,1,-4168,-84,-48
1773578666.760639,21.3,29.9,1,-4172,-108,-28
1773578666.7809331,21.3,29.9,1,-4172,-108,-28
1773578666.8045583,21.3,29.9,1,-4172,-108,-28
1773578666.8251648,21.3,29.9,1,-4216,-96,80
1773578666.845553,21.3,29.9,1,-4216,-96,80
1773578666.8661256,21.3,29.9,0,-4192,-104,4
1773578666.8863463,21.3,29.9,0,-4192,-104,4
1773578666.9067717,21.3,29.9,0,-4192,-104,4
1773578666.9273293,21.3,29.9,1,-4156,-104,-76
1773578666.9475107,21.3,29.9,1,-4156,-104,-76
1773578666.9690785,21.3,29.9,1,-4188,-88,52
1773578666.989688,21.3,29.9,1,-4188,-88,52
1773578667.0103774,21.3,29.9,1,-4188,-88,52
1773578667.0323753,21.3,29.9,1,-4176,-88,36
1773578667.0532703,21.3,29.9,1,-4176,-88,36
1773578667.0738509,21.3,29.9,1,-4068,-120,-60
1773578667.0949302,21.3,29.9,1,-4068,-120,-60
1773578667.1154408,21.3,29.9,1,-4068,-120,-60
1773578667.1360989,21.3,29.9,1,-4164,-108,20
1773578667.1588302,21.3,29.9,1,-4164,-108,20
1773578667.1798646,21.3,29.9,0,-4184,-72,84
1773578667.2009466,21.3,29.9,0,-4184,-72,84
1773578667.2222486,21.3,29.9,0,-4184,-72,84
1773578667.2431245,21.3,29.9,1,-4156,-120,-56
1773578667.2643988,21.3,29.9,1,-4156,-120,-56
1773578667.2854264,21.3,29.9,1,-4144,-76,-8
1773578667.3072236,21.3,29.9,1,-4144,-76,-8
1773578667.3277764,21.3,29.9,1,-4144,-76,-8
1773578667.3495893,21.3,29.9,0,-4204,-100,60
1773578667.369931,21.3,29.9,0,-4204,-100,60
1773578667.3903873,21.3,29.9,1,-4168,-128,8
1773578667.4109404,21.3,29.9,1,-4168,-128,8
1773578667.4320521,21.3,29.9,1,-4168,-128,8
1773578667.4531257,21.3,29.9,1,-4128,-124,-60
1773578667.473482,21.3,29.9,1,-4128,-124,-60
1773578667.494171,21.3,29.9,1,-4128,-124,-60
1773578667.5152378,21.3,29.9,0,-4176,-120,0
1773578667.5359542,21.3,29.9,0,-4176,-120,0
1773578667.556284,21.3,29.9,1,-4188,-112,52
1773578667.5768507,21.3,29.9,1,-4188,-112,52
1773578667.5971727,21.3,29.9,1,-4188,-112,52
1773578667.6177313,21.3,29.9,1,-4132,-116,-48
1773578667.6383452,21.3,29.9,1,-4132,-116,-48
1773578667.6589346,21.3,29.9,1,-4172,-100,16
1773578667.6797197,21.3,29.9,1,-4172,-100,16
1773578667.7008288,21.3,29.9,1,-4172,-100,16
1773578667.7217648,21.3,29.9,0,-4204,-76,40
1773578667.7423222,21.3,29.9,0,-4204,-76,40
1773578667.7636104,21.3,29.9,1,-4168,-128,-60
1773578667.7859497,21.3,29.9,1,-4168,-128,-60
1773578667.8065858,21.3,29.9,1,-4168,-128,-60
1773578667.82719,21.3,29.9,1,-4172,-120,-20
1773578667.8483484,21.3,29.9,1,-4172,-120,-20
1773578667.8686383,21.3,29.9,0,-4212,-88,64
1773578667.8893447,21.3,29.9,0,-4212,-88,64
1773578667.9096675,21.3,29.9,0,-4212,-88,64
1773578667.930359,21.3,29.9,1,-4216,-80,0
1773578667.9507725,21.3,29.9,1,-4216,-80,0
1773578667.9716036,21.3,29.9,1,-4216,-80,0
1773578667.9926405,21.3,29.9,1,-4140,-124,-76
1773578668.0132496,21.3,29.9,1,-4140,-124,-76
1773578668.0344276,21.3,29.9,1,-4192,-120,-12
1773578668.0548155,21.3,29.9,1,-4192,-120,-12
1773578668.075666,21.3,29.9,1,-4192,-120,-12
1773578668.0963683,21.3,29.9,0,-4204,-84,64
1773578668.1172574,21.3,29.9,0,-4204,-84,64
1773578668.1374023,21.3,29.9,1,-4188,-96,-32
1773578668.159105,21.3,29.9,1,-4188,-96,-32
1773578668.1794634,21.3,29.9,1,-4188,-96,-32
1773578668.1997201,21.3,29.9,1,-4136,-80,-48
1773578668.2203538,21.3,29.9,1,-4136,-80,-48
1773578668.2411819,21.3,29.9,0,-4204,-84,72
1773578668.2621078,21.3,29.9,0,-4204,-84,72
1773578668.283663,21.3,29.9,0,-4204,-84,72
1773578668.3045113,21.3,29.9,1,-4180,-108,8
1773578668.3250058,21.3,29.9,1,-4180,-108,8
1773578668.3453162,21.3,29.9,1,-4180,-108,8
1773578668.3658445,21.3,29.9,1,-4104,-124,-72
1773578668.3862672,21.3,29.9,1,-4104,-124,-72
1773578668.4069848,21.3,29.9,1,-4176,-100,28
1773578668.4276776,21.3,29.9,1,-4176,-100,28
1773578668.4488306,21.3,29.9,1,-4176,-100,28
1773578668.469315,21.3,29.9,1,-4188,-96,48
1773578668.4899266,21.3,29.9,1,-4188,-96,48
1773578668.5109365,21.3,29.9,1,-4168,-120,-68
1773578668.532285,21.3,29.9,1,-4168,-120,-68
1773578668.5528958,21.3,29.9,1,-4168,-120,-68
1773578668.5743818,21.3,29.9,1,-4180,-80,-28
1773578668.5949864,21.3,29.9,1,-4180,-80,-28
1773578668.6153831,21.3,29.9,1,-4180,-80,-28
1773578668.6359205,21.3,29.9,1,-4180,-80,-28
1773578668.6570537,21.3,29.9,1,-4144,-144,-40
1773578668.6777327,21.3,29.9,1,-4144,-144,-40
1773578668.698404,21.3,29.9,1,-4184,-92,-4
1773578668.7192633,21.3,29.9,1,-4184,-92,-4
1773578668.739861,21.3,29.9,1,-4184,-92,-4
1773578668.7606661,21.3,29.9,0,-4216,-60,56
1773578668.7821603,21.3,29.9,0,-4216,-60,56
1773578668.8031824,21.3,29.9,1,-4188,-120,-12
1773578668.82399,21.3,29.9,1,-4188,-120,-12
1773578668.845175,21.3,29.9,1,-4188,-120,-12
1773578668.866726,21.3,29.9,1,-4184,-104,-24
1773578668.887307,21.3,29.9,1,-4184,-104,-24
1773578668.9080787,21.3,29.9,1,-4180,-92,56
1773578668.9293303,21.3,29.9,1,-4180,-92,56
1773578668.950574,21.3,29.9,1,-4180,-92,56
1773578668.9713106,21.3,29.9,0,-4160,-116,0
1773578668.9916759,21.3,29.9,0,-4160,-116,0
1773578669.0130725,21.3,29.9,1,-4148,-108,-40
1773578669.0342653,21.3,29.9,1,-4148,-108,-40
1773578669.0550044,21.3,29.9,1,-4148,-108,-40
1773578669.075317,21.3,29.9,1,-4184,-88,0
1773578669.0957453,21.3,29.9,1,-4184,-88,0
1773578669.1163085,21.3,29.9,1,-4200,-100,60
1773578669.1368208,21.3,29.9,1,-4200,-100,60
1773578669.1576,21.3,29.9,1,-4200,-100,60
1773578669.1778996,21.3,29.9,1,-4164,-132,-72
1773578669.1985216,21.3,29.9,1,-4164,-132,-72
1773578669.2195125,21.3,29.9,1,-4164,-132,-72
1773578669.2400997,21.3,29.9,1,-4164,-92,-36
1773578669.2605374,21.3,29.9,1,-4164,-92,-36
1773578669.2814035,21.3,29.9,1,-4204,-96,72
1773578669.3025553,21.3,29.9,1,-4204,-96,72
1773578669.3232083,21.3,29.9,1,-4204,-96,72
1773578669.3441625,21.3,29.9,1,-4184,-104,-40
1773578669.3648796,21.3,29.9,1,-4184,-104,-40
1773578669.3858845,21.3,29.9,1,-4112,-120,-60
1773578669.4067485,21.3,29.9,1,-4112,-120,-60
1773578669.4271142,21.3,29.9,1,-4112,-120,-60
1773578669.4480674,21.3,29.9,1,-4192,-112,24
1773578669.468946,21.3,29.9,1,-4192,-112,24
1773578669.489773,21.3,29.9,1,-4208,-116,16
1773578669.5108144,21.3,29.9,1,-4208,-116,16
1773578669.5313532,21.3,29.9,1,-4208,-116,16
1773578669.5530229,21.3,29.9,1,-4152,-112,-44
1773578669.573565,21.3,29.9,1,-4152,-112,-44
1773578669.5941336,21.3,29.9,1,-4184,-104,4
1773578669.6147926,21.3,29.9,1,-4184,-104,4
1773578669.6362627,21.3,29.9,1,-4184,-104,4
1773578669.6565828,21.3,29.9,0,-4196,-112,40
1773578669.677231,21.3,29.9,0,-4196,-112,40
1773578669.698094,21.3,29.9,1,-4176,-128,-32
1773578669.7187612,21.3,29.9,1,-4176,-128,-32
1773578669.739262,21.3,29.9,1,-4176,-128,-32
1773578669.7599914,21.3,29.9,1,-4140,-88,-32
1773578669.7803657,21.3,29.9,1,-4140,-88,-32
1773578669.8011959,21.3,29.9,1,-4140,-88,-32
1773578669.8216457,21.3,29.9,0,-4200,-84,52
1773578669.8425746,21.3,29.9,0,-4200,-84,52
1773578669.8633623,21.3,29.9,1,-4168,-104,24
1773578669.8845177,21.3,29.9,1,-4168,-104,24
1773578669.9049451,21.3,29.9,1,-4168,-104,24
1773578669.925757,21.3,29.9,1,-4132,-120,-72
1773578669.946222,21.3,29.9,1,-4132,-120,-72
1773578669.9669075,21.3,29.9,1,-4176,-112,72
1773578669.9876173,21.3,29.9,1,-4176,-112,72
1773578670.0087624,21.3,29.9,1,-4176,-112,72
1773578670.0292554,21.3,29.9,1,-4208,-116,56
1773578670.0498161,21.3,29.9,1,-4208,-116,56
1773578670.0704997,21.3,29.9,1,-4128,-128,-40
1773578670.0909998,21.3,29.9,1,-4128,-128,-40
1773578670.1116366,21.3,29.9,1,-4128,-128,-40
1773578670.1327286,21.3,29.9,1,-4124,-96,-8
1773578670.1541677,21.3,29.9,1,-4124,-96,-8
1773578670.17496,21.3,29.9,0,-4180,-76,64
1773578670.196334,21.3,29.9,0,-4180,-76,64
1773578670.217084,21.3,29.9,0,-4180,-76,64
1773578670.2380402,21.3,29.9,1,-4156,-124,-20
1773578670.2592354,21.3,29.9,1,-4156,-124,-20
1773578670.28017,21.3,29.9,1,-4140,-92,-32
1773578670.301188,21.3,29.9,1,-4140,-92,-32
1773578670.3223076,21.3,29.9,1,-4140,-92,-32
1773578670.3427022,21.3,29.9,0,-4204,-104,32
1773578670.3633971,21.3,29.9,0,-4204,-104,32
1773578670.384176,21.3,29.9,0,-4204,-104,32
1773578670.4043994,21.3,29.9,0,-4192,-96,44
1773578670.424932,21.3,29.9,0,-4192,-96,44
1773578670.4452267,21.3,29.9,1,-4148,-112,-48
1773578670.4657276,21.3,29.9,1,-4148,-112,-48
1773578670.4868534,21.3,29.9,1,-4148,-112,-48
1773578670.50708,21.3,29.9,1,-4172,-96,-12
1773578670.5275362,21.3,29.9,1,-4172,-96,-12
1773578670.547927,21.3,29.9,0,-4188,-80,52
1773578670.5698643,21.3,29.9,0,-4188,-80,52
1773578670.5902274,21.3,29.9,0,-4188,-80,52
1773578670.6112714,21.3,29.9,1,-4164,-132,-52
1773578670.6322584,21.3,29.9,1,-4164,-132,-52
1773578670.6527896,21.3,29.9,1,-4164,-132,-52
1773578670.6733236,21.3,29.9,1,-4164,-132,-52
1773578670.6944883,21.3,30.0,0,-4212,-64,48
1773578670.7151496,21.3,30.0,0,-4212,-64,48
1773578670.7357903,21.3,30.0,1,-4124,-104,-68
1773578670.756229,21.3,30.0,1,-4124,-104,-68
1773578670.7777398,21.3,30.0,1,-4124,-104,-68
1773578670.7987747,21.3,30.0,1,-4140,-120,-20
1773578670.8197217,21.3,30.0,1,-4140,-120,-20
1773578670.8404508,21.3,30.0,0,-4200,-88,44
1773578670.8612065,21.3,30.0,0,-4200,-88,44
1773578670.8821797,21.3,30.0,0,-4200,-88,44
1773578670.9058022,21.3,30.0,1,-4152,-108,-12
1773578670.9271104,21.3,30.0,1,-4152,-108,-12
1773578670.9481769,21.3,30.0,1,-4168,-108,-16
1773578670.9689631,21.3,30.0,1,-4168,-108,-16
1773578670.9893684,21.3,30.0,1,-4168,-108,-16
1773578671.0104578,21.3,30.0,1,-4204,-100,44
1773578671.0315325,21.3,30.0,1,-4204,-100,44
1773578671.05275,21.3,30.0,1,-4196,-96,36
1773578671.0731812,21.3,30.0,1,-4196,-96,36
1773578671.0945394,21.3,30.0,1,-4196,-96,36
1773578671.1152213,21.3,30.0,1,-4172,-124,-20
1773578671.136119,21.3,30.0,1,-4172,-124,-20
1773578671.1565092,21.3,30.0,1,-4168,-80,-8
1773578671.1772568,21.3,30.0,1,-4168,-80,-8
1773578671.1978939,21.3,30.0,1,-4168,-80,-8
1773578671.2199795,21.3,30.0,0,-4208,-72,52
1773578671.2401946,21.3,30.0,0,-4208,-72,52
1773578671.2610784,21.3,30.0,1,-4180,-104,-4
1773578671.2815964,21.3,30.0,1,-4180,-104,-4
1773578671.3022146,21.3,30.0,1,-4180,-104,-4
1773578671.3229263,21.3,30.0,1,-4156,-108,-40
1773578671.3437793,21.3,30.0,1,-4156,-108,-40
1773578671.3642004,21.3,30.0,1,-4156,-108,-40
1773578671.3850262,21.3,30.0,0,-4204,-104,64
1773578671.4056017,21.3,30.0,0,-4204,-104,64
1773578671.4267437,21.3,30.0,1,-4216,-100,32
1773578671.447355,21.3,30.0,1,-4216,-100,32
1773578671.4677005,21.3,30.0,1,-4216,-100,32
1773578671.4882557,21.3,30.0,1,-4124,-104,-56
1773578671.508578,21.3,30.0,1,-4124,-104,-56
1773578671.5291636,21.3,30.0,1,-4160,-88,44
1773578671.552297,21.3,30.0,1,-4160,-88,44
1773578671.5728796,21.3,30.0,1,-4160,-88,44
1773578671.5933032,21.3,30.0,0,-4204,-92,48
1773578671.614512,21.3,30.0,0,-4204,-92,48
1773578671.6366155,21.3,30.0,1,-4156,-104,-72
1773578671.6571555,21.3,30.0,1,-4156,-104,-72
1773578671.6774683,21.3,30.0,1,-4156,-104,-72
1773578671.697913,21.3,30.0,1,-4144,-116,-24
1773578671.7187784,21.3,30.0,1,-4144,-116,-24
1773578671.7391477,21.3,30.0,1,-4204,-64,40
1773578671.7595403,21.3,30.0,1,-4204,-64,40
1773578671.7800243,21.3,30.0,1,-4204,-64,40
1773578671.8008094,21.3,30.0,1,-4176,-88,12
1773578671.8212628,21.3,30.0,1,-4176,-88,12
1773578671.8418827,21.3,30.0,1,-4176,-88,12
1773578671.863714,21.3,30.0,1,-4156,-112,-56
1773578671.884455,21.3,30.0,1,-4156,-112,-56
1773578671.9061852,21.3,30.0,1,-4144,-92,-4
1773578671.9275331,21.3,30.0,1,-4144,-92,-4
1773578671.9481242,21.3,30.0,1,-4144,-92,-4
1773578671.968743,21.3,30.0,0,-4224,-84,12
1773578671.9895194,21.3,30.0,0,-4224,-84,12
1773578672.0105877,21.3,30.0,1,-4168,-116,-16
1773578672.0321681,21.3,30.0,1,-4168,-116,-16
1773578672.0554545,21.3,30.0,1,-4168,-116,-16
1773578672.076201,21.3,30.0,1,-4184,-104,-52
1773578672.0968707,21.3,30.0,1,-4184,-104,-52
1773578672.1178243,21.3,30.0,0,-4200,-80,80
1773578672.138171,21.3,30.0,0,-4200,-80,80
1773578672.1586626,21.3,30.0,0,-4200,-80,80
1773578672.1793244,21.3,30.0,1,-4184,-124,48
1773578672.2002237,21.3,30.0,1,-4184,-124,48
1773578672.220768,21.3,30.0,1,-4124,-140,-40
1773578672.2416081,21.3,30.0,1,-4124,-140,-40
1773578672.2618766,21.3,30.0,1,-4124,-140,-40
1773578672.282828,21.3,30.0,1,-4168,-96,44
1773578672.3045578,21.3,30.0,1,-4168,-96,44
1773578672.3259108,21.3,30.0,1,-4200,-92,28
1773578672.3462412,21.3,30.0,1,-4200,-92,28
1773578672.3673258,21.3,30.0,1,-4200,-92,28
1773578672.3882673,21.3,30.0,1,-4132,-128,-68
1773578672.4091556,21.3,30.0,1,-4132,-128,-68
1773578672.429724,21.3,30.0,1,-4148,-104,12
1773578672.450507,21.3,30.0,1,-4148,-104,12
1773578672.4714103,21.3,30.0,1,-4148,-104,12
1773578672.4921224,21.3,30.0,0,-4204,-104,44
1773578672.5128672,21.3,30.0,0,-4204,-104,44
1773578672.533548,21.3,30.0,1,-4164,-112,-16
1773578672.554789,21.3,30.0,1,-4164,-112,-16
1773578672.575611,21.3,30.0,1,-4164,-112,-16
1773578672.5960956,21.3,30.0,1,-4136,-104,-20
1773578672.6167183,21.3,30.0,1,-4136,-104,-20
1773578672.6376119,21.3,30.0,1,-4136,-104,-20
1773578672.658028,21.3,30.0,1,-4188,-104,36
1773578672.6786284,21.3,30.0,1,-4188,-104,36
1773578672.6990502,21.3,30.0,1,-4188,-104,36
1773578672.7203171,21.2,30.0,1,-4172,-104,-24
1773578672.740463,21.2,30.0,1,-4172,-104,-24
1773578672.7612567,21.2,30.0,1,-4172,-104,-24
1773578672.7819428,21.2,30.0,0,-4204,-88,40
1773578672.8039858,21.2,30.0,0,-4204,-88,40
1773578672.824406,21.2,30.0,1,-4180,-104,20
1773578672.8452384,21.2,30.0,1,-4180,-104,20
1773578672.8658068,21.2,30.0,1,-4180,-104,20
1773578672.886464,21.2,30.0,1,-4120,-92,-44
1773578672.9069955,21.2,30.0,1,-4120,-92,-44
1773578672.927391,21.2,30.0,1,-4120,-92,-44
1773578672.9480019,21.2,30.0,1,-4180,-100,32
1773578672.9698794,21.2,30.0,1,-4180,-100,32
1773578672.9901628,21.2,30.0,0,-4200,-96,48
1773578673.010489,21.2,30.0,0,-4200,-96,48
1773578673.030726,21.2,30.0,0,-4200,-96,48
1773578673.050934,21.2,30.0,1,-4144,-132,-68
1773578673.0711982,21.2,30.0,1,-4144,-132,-68
1773578673.0916684,21.2,30.0,1,-4164,-112,0
1773578673.1122525,21.2,30.0,1,-4164,-112,0
1773578673.132607,21.2,30.0,1,-4164,-112,0
1773578673.1530485,21.2,30.0,1,-4212,-84,56
1773578673.1733527,21.2,30.0,1,-4212,-84,56
1773578673.1936855,21.2,30.0,1,-4172,-120,-36
1773578673.2140882,21.2,30.0,1,-4172,-120,-36
1773578673.234977,21.2,30.0,1,-4172,-120,-36
1773578673.255452,21.2,30.0,1,-4144,-132,-36
1773578673.2759132,21.2,30.0,1,-4144,-132,-36
1773578673.2962403,21.2,30.0,1,-4144,-132,-36
1773578673.3164654,21.2,30.0,0,-4184,-112,28
1773578673.3368733,21.2,30.0,0,-4184,-112,28
1773578673.3576524,21.2,30.0,0,-4184,-124,28
1773578673.3779852,21.2,30.0,0,-4184,-124,28
1773578673.3985612,21.2,30.0,0,-4184,-124,28
1773578673.418911,21.2,30.0,1,-4168,-124,-48
1773578673.4395807,21.2,30.0,1,-4168,-124,-48
1773578673.4603925,21.2,30.0,1,-4156,-124,-4
1773578673.4809725,21.2,30.0,1,-4156,-124,-4
1773578673.502309,21.2,30.0,1,-4156,-124,-4
1773578673.5225868,21.2,30.0,1,-4196,-100,56
1773578673.5427868,21.2,30.0,1,-4196,-100,56
1773578673.5632565,21.2,30.0,1,-4196,-100,56
1773578673.5834436,21.2,30.0,1,-4192,-116,-76
1773578673.6041741,21.2,30.0,1,-4192,-116,-76
1773578673.6245034,21.2,30.0,1,-4144,-104,-68
1773578673.6449673,21.2,30.0,1,-4144,-104,-68
1773578673.6655774,21.2,30.0,1,-4144,-104,-68
1773578673.686244,21.2,30.0,0,-4212,-84,60
1773578673.7068849,21.2,30.0,0,-4212,-84,60
1773578673.7272499,21.2,30.0,1,-4188,-112,-8
1773578673.747679,21.2,30.0,1,-4188,-112,-8
1773578673.7681172,21.2,30.0,1,-4188,-112,-8
1773578673.788314,21.2,30.0,1,-4124,-108,-64
1773578673.808724,21.2,30.0,1,-4124,-108,-64
1773578673.8293152,21.2,30.0,1,-4124,-108,-64
1773578673.8497815,21.2,30.0,1,-4176,-108,32
1773578673.8705304,21.2,30.0,1,-4176,-108,32
1773578673.890949,21.2,30.0,0,-4200,-80,52
1773578673.9113948,21.2,30.0,0,-4200,-80,52
1773578673.9317062,21.2,30.0,0,-4200,-80,52
1773578673.952506,21.2,30.0,1,-4160,-124,-56
1773578673.9730537,21.2,30.0,1,-4160,-124,-56
1773578673.993376,21.2,30.0,1,-4144,-120,-8
1773578674.0135899,21.2,30.0,1,-4144,-120,-8
1773578674.0340557,21.2,30.0,1,-4144,-120,-8
1773578674.0543098,21.2,30.0,0,-4216,-72,52
1773578674.0749366,21.2,30.0,0,-4216,-72,52
1773578674.0968192,21.2,30.0,0,-4216,-72,52
1773578674.117446,21.2,30.0,0,-4164,-124,16
1773578674.1378407,21.2,30.0,0,-4164,-124,16
1773578674.1582367,21.2,30.0,1,-4128,-112,-60
1773578674.17856,21.2,30.0,1,-4128,-112,-60
1773578674.199066,21.2,30.0,1,-4128,-112,-60
1773578674.2192729,21.2,30.0,0,-4172,-108,16
1773578674.2398617,21.2,30.0,0,-4172,-108,16
1773578674.2601688,21.2,30.0,1,-4160,-100,60
1773578674.2809112,21.2,30.0,1,-4160,-100,60
1773578674.3012764,21.2,30.0,1,-4160,-100,60
1773578674.3235574,21.2,30.0,1,-4148,-120,-36
1773578674.346588,21.2,30.0,1,-4148,-120,-36
1773578674.3698628,21.2,30.0,1,-4180,-116,-24
1773578674.3906846,21.2,30.0,1,-4180,-116,-24
1773578674.411361,21.2,30.0,1,-4180,-116,-24
1773578674.4316802,21.2,30.0,0,-4224,-76,76
1773578674.4645545,21.2,30.0,0,-4224,-76,76
1773578674.4983292,21.2,30.0,1,-4168,-132,-36
1773578674.52156,21.2,30.0,1,-4168,-132,-36
1773578674.5442557,21.2,30.0,1,-4152,-112,-84
1773578674.5645225,21.2,30.0,1,-4152,-112,-84
1773578674.5858102,21.2,30.0,1,-4204,-68,56
1773578674.6066291,21.2,30.0,1,-4204,-68,56
1773578674.6271858,21.2,30.0,1,-4200,-96,24
1773578674.6475923,21.2,30.0,1,-4200,-96,24
1773578674.6684623,21.2,30.0,1,-4200,-96,24
1773578674.690228,21.2,30.0,1,-4112,-112,-52
1773578674.7108145,21.2,30.0,1,-4112,-112,-52
1773578674.7327547,21.2,30.0,1,-4112,-112,-52
1773578674.7571857,21.2,30.0,1,-4112,-112,-52
1773578674.7831585,21.2,30.0,1,-4148,-112,4
1773578674.8057895,21.2,30.0,1,-4148,-112,4
1773578674.826863,21.2,30.0,1,-4088,-120,-72
1773578674.847035,21.2,30.0,1,-4088,-120,-72
1773578674.8731186,21.2,30.0,1,-4088,-120,-72
1773578674.8947935,21.2,30.0,1,-4180,-104,12
1773578674.9155967,21.2,30.0,1,-4180,-104,12
1773578674.936622,21.2,30.0,0,-4196,-96,32
1773578674.9570987,21.2,30.0,0,-4196,-96,32
1773578674.977457,21.2,30.0,1,-4176,-120,-40
1773578674.9982703,21.2,30.0,1,-4176,-120,-40
1773578675.0184677,21.2,30.0,1,-4176,-120,-40
1773578675.0391483,21.2,30.0,1,-4160,-108,-8
1773578675.0596514,21.2,30.0,1,-4160,-108,-8
1773578675.0798588,21.2,30.0,1,-4220,-84,80
1773578675.1002073,21.2,30.0,1,-4220,-84,80
1773578675.1210632,21.2,30.0,1,-4220,-84,80
1773578675.1442785,21.2,30.0,1,-4184,-120,-60
1773578675.1647708,21.2,30.0,1,-4184,-120,-60
1773578675.185156,21.2,30.0,1,-4152,-116,-56
1773578675.208013,21.2,30.0,1,-4152,-116,-56
1773578675.2284665,21.2,30.0,1,-4152,-116,-56
1773578675.2500415,21.2,30.0,1,-4188,-92,72
1773578675.2703319,21.2,30.0,1,-4188,-92,72
1773578675.2909226,21.2,30.0,1,-4184,-108,44
1773578675.3115416,21.2,30.0,1,-4184,-108,44
1773578675.3332229,21.2,30.0,1,-4184,-108,44
1773578675.3536205,21.2,30.0,1,-4128,-136,-48
1773578675.3742254,21.2,30.0,1,-4128,-136,-48
1773578675.3944652,21.2,30.0,1,-4164,-96,24
1773578675.4150126,21.2,30.0,1,-4164,-96,24
1773578675.4367692,21.2,30.0,1,-4164,-96,24
1773578675.4570303,21.2,30.0,1,-4220,-100,80
1773578675.4798975,21.2,30.0,1,-4220,-100,80
1773578675.5006876,21.2,30.0,1,-4164,-100,-44
1773578675.5215583,21.2,30.0,1,-4164,-100,-44
1773578675.543993,21.2,30.0,1,-4164,-100,-44
1773578675.5645716,21.2,30.0,1,-4112,-108,-20
1773578675.5880077,21.2,30.0,1,-4112,-108,-20
1773578675.6121535,21.2,30.0,0,-4208,-88,36
1773578675.6333673,21.2,30.0,0,-4208,-88,36
1773578675.6540034,21.2,30.0,0,-4208,-88,36
1773578675.674366,21.2,30.0,1,-4168,-112,24
1773578675.6948588,21.2,30.0,1,-4168,-112,24
1773578675.7212186,21.2,30.0,1,-4132,-136,-60
1773578675.741728,21.2,30.0,1,-4132,-136,-60
1773578675.762084,21.2,30.0,1,-4132,-136,-60
1773578675.7823706,21.2,30.0,1,-4192,-104,-8
1773578675.8028073,21.2,30.0,1,-4192,-104,-8
1773578675.8230178,21.2,30.0,0,-4212,-108,76
1773578675.843512,21.2,30.0,0,-4212,-108,76
1773578675.864388,21.2,30.0,0,-4212,-108,76
1773578675.886564,21.2,30.0,1,-4160,-124,-44
1773578675.9073427,21.2,30.0,1,-4160,-124,-44
1773578675.9280157,21.2,30.0,1,-4156,-100,-60
1773578675.9498358,21.2,30.0,1,-4156,-100,-60
1773578675.9764726,21.2,30.0,1,-4156,-100,-60
1773578675.9969718,21.2,30.0,1,-4212,-64,80
1773578676.0173707,21.2,30.0,1,-4212,-64,80
1773578676.038055,21.2,30.0,1,-4180,-108,-28
1773578676.058789,21.2,30.0,1,-4180,-108,-28
1773578676.0793686,21.2,30.0,1,-4180,-108,-28
1773578676.100975,21.2,30.0,1,-4124,-116,-80
1773578676.1223176,21.2,30.0,1,-4124,-116,-80
1773578676.1429842,21.2,30.0,1,-4224,-76,44
1773578676.1634653,21.2,30.0,1,-4224,-76,44
1773578676.1838732,21.2,30.0,1,-4224,-76,44
1773578676.2045698,21.2,30.0,0,-4212,-88,36
1773578676.225682,21.2,30.0,0,-4212,-88,36
1773578676.246142,21.2,30.0,1,-4156,-92,-60
1773578676.2663093,21.2,30.0,1,-4156,-92,-60
1773578676.2872293,21.2,30.0,1,-4156,-92,-60
1773578676.3085449,21.2,30.0,1,-4164,-104,-8
1773578676.3294446,21.2,30.0,1,-4164,-104,-8
1773578676.3541732,21.2,30.0,1,-4164,-104,-8
1773578676.3746798,21.2,30.0,0,-4180,-88,76
1773578676.3957508,21.2,30.0,0,-4180,-88,76
1773578676.416164,21.2,30.0,1,-4164,-120,-16
1773578676.4369686,21.2,30.0,1,-4164,-120,-16
1773578676.4575663,21.2,30.0,1,-4112,-120,-60
1773578676.4783509,21.2,30.0,1,-4112,-120,-60
1773578676.4987004,21.2,30.0,1,-4112,-120,-60
1773578676.5212214,21.2,30.0,1,-4180,-100,24
1773578676.5415542,21.2,30.0,1,-4180,-100,24
1773578676.5629375,21.2,30.0,0,-4196,-68,28
1773578676.5834477,21.2,30.0,0,-4196,-68,28
1773578676.6171796,21.2,30.0,0,-4196,-68,28
1773578676.6415126,21.2,30.0,1,-4152,-132,-76
1773578676.662674,21.2,30.0,1,-4152,-132,-76
1773578676.6845613,21.2,30.0,1,-4188,-112,-28
1773578676.7105975,21.2,30.0,1,-4188,-112,-28
1773578676.731373,21.2,30.0,0,-4204,-104,80
1773578676.752675,21.2,30.0,0,-4204,-104,80
1773578676.7736037,21.2,30.0,0,-4204,-104,80
1773578676.794465,21.2,30.0,0,-4204,-104,80
1773578676.8161736,21.2,30.0,1,-4216,-76,24
1773578676.837047,21.2,30.0,1,-4216,-76,24
1773578676.8583057,21.2,30.0,1,-4192,-92,60
1773578676.878774,21.2,30.0,1,-4192,-92,60
1773578676.8991635,21.2,30.0,1,-4192,-92,60
1773578676.9279315,21.2,30.0,1,-4156,-136,-68
1773578676.9482741,21.2,30.0,1,-4156,-136,-68
1773578676.9686294,21.2,30.0,1,-4160,-112,-20
1773578676.9892335,21.2,30.0,1,-4160,-112,-20
1773578677.0096405,21.2,30.0,0,-4200,-100,84
1773578677.0299356,21.2,30.0,0,-4200,-100,84
1773578677.0509815,21.2,30.0,0,-4200,-100,84
1773578677.0713923,21.2,30.0,1,-4148,-116,-28
1773578677.0918162,21.2,30.0,1,-4148,-116,-28
1773578677.1121013,21.2,30.0,1,-4148,-116,-28
1773578677.132688,21.2,30.0,1,-4124,-120,-44
1773578677.153294,21.2,30.0,1,-4124,-120,-44
1773578677.1738236,21.2,30.0,1,-4172,-116,24
1773578677.1943116,21.2,30.0,1,-4172,-116,24
1773578677.2146983,21.2,30.0,1,-4172,-116,24
1773578677.2351182,21.2,30.0,1,-4192,-80,48
1773578677.2564754,21.2,30.0,1,-4192,-80,48
1773578677.2769413,21.2,30.0,1,-4144,-124,-64
1773578677.2976866,21.2,30.0,1,-4144,-124,-64
1773578677.3186734,21.2,30.0,1,-4144,-124,-64
1773578677.3393552,21.2,30.0,1,-4184,-120,-36
1773578677.3598957,21.2,30.0,1,-4184,-120,-36
1773578677.3835437,21.2,30.0,1,-4196,-84,68
1773578677.404799,21.2,30.0,1,-4196,-84,68
1773578677.4257755,21.2,30.0,1,-4196,-84,68
1773578677.4465199,21.2,30.0,1,-4152,-112,-52
1773578677.4671228,21.2,30.0,1,-4152,-112,-52
1773578677.4894733,21.2,30.0,1,-4140,-128,-76
1773578677.511875,21.2,30.0,1,-4140,-128,-76
1773578677.5324552,21.2,30.0,1,-4140,-128,-76
1773578677.556114,21.2,30.0,0,-4200,-80,52
1773578677.578203,21.2,30.0,0,-4200,-80,52
1773578677.5992484,21.2,30.0,0,-4188,-92,8
1773578677.626037,21.2,30.0,0,-4188,-92,8
1773578677.646593,21.2,30.0,1,-4132,-108,-100
1773578677.6745386,21.2,30.0,1,-4132,-108,-100
1773578677.6950562,21.2,30.0,1,-4132,-108,-100
1773578677.723909,21.2,30.0,1,-4212,-80,4
1773578677.744719,21.2,30.0,1,-4212,-80,4
1773578677.766076,21.2,30.0,0,-4216,-76,52
1773578677.789111,21.2,30.0,0,-4216,-76,52
1773578677.8098447,21.2,30.0,1,-4140,-92,-44
1773578677.830539,21.2,30.0,1,-4140,-92,-44
1773578677.8626497,21.2,30.0,1,-4140,-92,-44
1773578677.8862543,21.2,30.0,1,-4144,-112,-36
1773578677.906656,21.2,30.0,1,-4144,-112,-36
1773578677.9285674,21.2,30.0,1,-4204,-88,36
1773578677.9505582,21.2,30.0,1,-4204,-88,36
1773578677.9725194,21.2,30.0,1,-4160,-108,20
1773578677.993126,21.2,30.0,1,-4160,-108,20
1773578678.0138159,21.2,30.0,1,-4160,-108,20
1773578678.0343413,21.2,30.0,1,-4164,-120,-52
1773578678.0559306,21.2,30.0,1,-4164,-120,-52
1773578678.0761478,21.2,30.0,0,-4208,-92,-12
1773578678.0965064,21.2,30.0,0,-4208,-92,-12
1773578678.1175818,21.2,30.0,0,-4208,-92,-12
1773578678.1380312,21.2,30.0,0,-4216,-96,64
1773578678.1585052,21.2,30.0,0,-4216,-96,64
1773578678.1786854,21.2,30.0,1,-4180,-132,-44
1773578678.199392,21.2,30.0,1,-4180,-132,-44
1773578678.219883,21.2,30.0,1,-4180,-132,-44
1773578678.240564,21.2,30.0,1,-4152,-108,-68
1773578678.2612085,21.2,30.0,1,-4152,-108,-68
1773578678.281575,21.2,30.0,1,-4152,-108,-68
1773578678.3031375,21.2,30.0,1,-4184,-84,76
1773578678.3237207,21.2,30.0,1,-4184,-84,76
1773578678.3442147,21.2,30.0,0,-4192,-88,-12
1773578678.364781,21.2,30.0,0,-4192,-88,-12
1773578678.3860507,21.2,30.0,0,-4192,-88,-12
1773578678.4068015,21.2,30.0,1,-4136,-120,-72
1773578678.4273865,21.2,30.0,1,-4136,-120,-72
1773578678.4478698,21.2,30.0,1,-4192,-96,40
1773578678.468651,21.2,30.0,1,-4192,-96,40
1773578678.489611,21.2,30.0,1,-4192,-96,40
1773578678.51047,21.2,30.0,0,-4204,-76,36
1773578678.5308955,21.2,30.0,0,-4204,-76,36
1773578678.5529795,21.2,30.0,1,-4140,-120,-52
1773578678.5732245,21.2,30.0,1,-4140,-120,-52
1773578678.5939467,21.2,30.0,1,-4140,-120,-52
1773578678.6146414,21.2,30.0,1,-4180,-92,-20
1773578678.6366227,21.2,30.0,1,-4180,-92,-20
1773578678.6571085,21.2,30.0,0,-4204,-84,44
1773578678.6779556,21.2,30.0,0,-4204,-84,44
1773578678.6990027,21.2,30.0,0,-4204,-84,44
1773578678.7197607,21.2,30.0,0,-4172,-120,20
1773578678.7435331,21.2,30.0,0,-4172,-120,20
1773578678.7647202,21.2,30.0,1,-4136,-104,-72
1773578678.7896926,21.2,30.0,1,-4136,-104,-72
1773578678.8119211,21.2,30.0,1,-4136,-104,-72
1773578678.8373845,21.2,30.0,1,-4136,-104,-72
1773578678.859168,21.2,30.0,1,-4172,-96,-56
1773578678.8798015,21.2,30.0,1,-4172,-96,-56
1773578678.9006097,21.2,30.0,1,-4168,-124,-48
1773578678.9219475,21.2,30.0,1,-4168,-124,-48
1773578678.9433522,21.2,30.0,1,-4168,-124,-48
1773578678.9639084,21.2,30.0,0,-4200,-104,68
1773578678.9895957,21.2,30.0,0,-4200,-104,68
1773578679.0102003,21.2,30.0,0,-4180,-120,-20
1773578679.0307825,21.2,30.0,0,-4180,-120,-20
1773578679.0517318,21.2,30.0,1,-4136,-140,-76
1773578679.07269,21.2,30.0,1,-4136,-140,-76
1773578679.093192,21.2,30.0,1,-4136,-140,-76
1773578679.1136534,21.2,30.0,1,-4192,-60,68
1773578679.134329,21.2,30.0,1,-4192,-60,68
1773578679.1570945,21.2,30.0,1,-4192,-60,68
1773578679.1818228,21.2,30.0,0,-4212,-84,88
1773578679.2023141,21.2,30.0,0,-4212,-84,88
1773578679.2232985,21.2,30.0,1,-4164,-124,-68
1773578679.2435932,21.2,30.0,1,-4164,-124,-68
1773578679.2640035,21.2,30.0,0,-4164,-104,-8
1773578679.284523,21.2,30.0,0,-4164,-104,-8
1773578679.3064594,21.2,30.0,0,-4164,-104,-8
1773578679.326984,21.2,30.0,1,-4196,-88,44
1773578679.3471837,21.2,30.0,1,-4196,-88,44
1773578679.368811,21.2,30.0,1,-4176,-120,-32
1773578679.3893514,21.2,30.0,1,-4176,-120,-32
1773578679.4098752,21.2,30.0,1,-4176,-120,-32
1773578679.4310877,21.2,30.0,1,-4132,-140,-60
1773578679.4524622,21.2,30.0,1,-4132,-140,-60
1773578679.4730775,21.2,30.0,1,-4132,-140,-60
1773578679.4933577,21.2,30.0,1,-4204,-80,16
1773578679.5136285,21.2,30.0,1,-4204,-80,16
1773578679.5340896,21.2,30.0,0,-4196,-72,68
1773578679.5544522,21.2,30.0,0,-4196,-72,68
1773578679.575124,21.2,30.0,0,-4196,-72,68
1773578679.596704,21.2,30.0,1,-4160,-124,-68
1773578679.617071,21.2,30.0,1,-4160,-124,-68
1773578679.639178,21.2,30.0,1,-4168,-112,-24
1773578679.6596677,21.2,30.0,1,-4168,-112,-24
1773578679.6822646,21.2,30.0,1,-4168,-112,-24
1773578679.7026727,21.2,30.0,0,-4204,-80,64
1773578679.7232256,21.2,30.0,0,-4204,-80,64
1773578679.7531502,21.2,30.0,1,-4168,-116,-52
1773578679.7756648,21.2,30.0,1,-4168,-116,-52
1773578679.7996407,21.2,30.0,1,-4148,-84,-76
1773578679.8244011,21.2,30.0,1,-4148,-84,-76
1773578679.8464093,21.2,30.0,1,-4196,-112,52
1773578679.868851,21.2,30.0,1,-4196,-112,52
1773578679.8895853,21.2,30.0,1,-4196,-112,52
1773578679.913592,21.2,30.0,0,-4200,-124,40
1773578679.9342089,21.2,30.0,0,-4200,-124,40
1773578679.9550455,21.2,30.0,1,-4168,-128,-80
1773578679.9757926,21.2,30.0,1,-4168,-128,-80
1773578679.997417,21.2,30.0,1,-4168,-128,-80
