timestamp,temp,hum,mic,ax,ay,az
1773578474.7846103,21.8,28.9,1,-4196,-68,24
1773578474.8051972,21.8,28.9,1,-4196,-68,24
1773578474.8259177,21.8,28.9,1,-4176,-108,16
1773578474.8465705,21.8,28.9,1,-4176,-108,16
1773578474.86735,21.8,28.9,1,-4188,-112,-20
1773578474.8877847,21.8,28.9,1,-4188,-112,-20
1773578474.9080892,21.8,28.9,1,-4188,-112,-20
1773578474.9284315,21.8,28.9,1,-4172,-128,-16
1773578474.9489908,21.8,28.9,1,-4172,-128,-16
1773578474.9692173,21.8,28.9,1,-4176,-128,16
1773578474.9896154,21.8,28.9,1,-4176,-128,16
1773578475.0101092,21.8,28.9,1,-4176,-128,16
1773578475.0304644,21.8,28.9,1,-4180,-108,16
1773578475.050985,21.8,28.9,1,-4180,-108,16
1773578475.072225,21.8,28.9,1,-4180,-108,16
1773578475.092746,21.8,28.9,0,-4164,-112,-4
1773578475.113453,21.8,28.9,0,-4164,-112,-4
1773578475.1342232,21.8,28.9,1,-4164,-116,20
1773578475.154746,21.8,28.9,1,-4164,-116,20
1773578475.1751907,21.8,28.9,1,-4164,-116,20
1773578475.1959527,21.8,28.9,1,-4184,-88,16
1773578475.2168255,21.8,28.9,1,-4184,-88,16
1773578475.2373617,21.8,28.9,1,-4164,-128,8
1773578475.257794,21.8,28.9,1,-4164,-128,8
1773578475.2780979,21.8,28.9,1,-4164,-128,8
1773578475.298952,21.8,28.9,0,-4164,-124,-12
1773578475.3194473,21.8,28.9,0,-4164,-124,-12
1773578475.3398485,21.8,28.9,0,-4164,-120,24
1773578475.360419,21.8,28.9,0,-4164,-120,24
1773578475.3810706,21.8,28.9,0,-4164,-120,24
1773578475.4026043,21.8,28.9,1,-4160,-104,-4
1773578475.423046,21.8,28.9,1,-4160,-104,-4
1773578475.4432905,21.8,28.9,1,-4160,-104,-4
1773578475.463886,21.8,28.9,1,-4164,-96,-16
1773578475.484741,21.8,28.9,1,-4164,-96,-16
1773578475.5050683,21.8,28.9,1,-4156,-128,4
1773578475.5255127,21.8,28.9,1,-4156,-128,4
1773578475.546159,21.8,28.9,1,-4156,-128,4
1773578475.5666702,21.8,28.9,0,-4188,-112,0
1773578475.5871606,21.8,28.9,0,-4188,-112,0
1773578475.6075444,21.8,28.9,1,-4172,-108,-8
1773578475.6282575,21.8,28.9,1,-4172,-108,-8
1773578475.6485453,21.8,28.9,1,-4172,-108,-8
1773578475.6694498,21.8,28.9,1,-4140,-144,-4
1773578475.6901312,21.8,28.9,1,-4140,-144,-4
1773578475.7104359,21.8,28.9,1,-4188,-124,16
1773578475.7310867,21.8,28.9,1,-4188,-124,16
1773578475.7518663,21.8,28.9,1,-4188,-124,16
1773578475.7721791,21.8,28.9,1,-4172,-128,-12
1773578475.7925298,21.8,28.9,1,-4172,-128,-12
1773578475.8127337,21.8,28.9,1,-4172,-128,-12
1773578475.833183,21.8,28.9,1,-4136,-124,-8
1773578475.8534136,21.8,28.9,1,-4136,-124,-8
1773578475.8740456,21.8,28.9,0,-4192,-116,36
1773578475.8946612,21.8,28.9,0,-4192,-116,36
1773578475.9157748,21.8,28.9,0,-4192,-116,36
1773578475.936322,21.8,28.9,1,-4204,-120,0
1773578475.956713,21.8,28.9,1,-4204,-120,0
1773578475.9772243,21.8,28.9,1,-4160,-112,-8
1773578475.997803,21.8,28.9,1,-4160,-112,-8
1773578476.0184278,21.8,28.9,1,-4160,-112,-8
1773578476.039048,21.8,28.9,1,-4200,-112,28
1773578476.059538,21.8,28.9,1,-4200,-112,28
1773578476.08013,21.8,28.9,1,-4200,-112,28
1773578476.1007788,21.8,28.9,1,-4176,-128,4
1773578476.1212885,21.8,28.9,1,-4176,-128,4
1773578476.1419036,21.8,28.9,1,-4168,-120,-20
1773578476.1621823,21.8,28.9,1,-4168,-120,-20
1773578476.1826816,21.8,28.9,1,-4168,-120,-20
1773578476.2032695,21.8,28.9,1,-4160,-112,4
1773578476.2239373,21.8,28.9,1,-4160,-112,4
1773578476.244329,21.8,28.9,1,-4184,-128,0
1773578476.2649221,21.8,28.9,1,-4184,-128,0
1773578476.2850468,21.8,28.9,1,-4184,-128,0
1773578476.3053205,21.8,28.9,1,-4176,-128,4
1773578476.325929,21.8,28.9,1,-4176,-128,4
1773578476.3463888,21.8,28.9,1,-4176,-128,4
1773578476.3668473,21.8,28.9,1,-4160,-124,-28
1773578476.3876977,21.8,28.9,1,-4160,-124,-28
1773578476.4091682,21.8,28.9,1,-4152,-124,36
1773578476.4309561,21.8,28.9,1,-4152,-124,36
1773578476.4519954,21.8,28.9,1,-4152,-124,36
1773578476.472482,21.8,28.9,1,-4152,-124,36
1773578476.4927313,21.8,28.9,1,-4156,-116,-8
1773578476.5136297,21.8,28.9,1,-4156,-116,-8
1773578476.5339205,21.8,28.9,1,-4172,-116,16
1773578476.5547996,21.8,28.9,1,-4172,-116,16
1773578476.5753124,21.8,28.9,1,-4172,-116,16
1773578476.59554,21.8,28.9,1,-4176,-104,8
1773578476.6158602,21.8,28.9,1,-4176,-104,8
1773578476.6365302,21.8,28.9,1,-4176,-104,8
1773578476.6570597,21.8,28.9,0,-4160,-116,-20
1773578476.6781125,21.8,28.9,0,-4160,-116,-20
1773578476.6987383,21.8,28.9,1,-4176,-104,12
1773578476.7192066,21.8,28.9,1,-4176,-104,12
1773578476.7395425,21.8,28.9,1,-4176,-104,12
1773578476.7598996,21.8,28.9,1,-4200,-116,24
1773578476.7802992,21.8,28.9,1,-4200,-116,24
1773578476.8009098,21.8,28.9,1,-4180,-124,-44
1773578476.8212776,21.8,28.9,1,-4180,-124,-44
1773578476.8416626,21.8,28.9,1,-4180,-124,-44
1773578476.8624687,21.8,28.9,1,-4184,-140,-4
1773578476.8830574,21.8,28.9,1,-4184,-140,-4
1773578476.9037087,21.8,28.9,1,-4188,-124,12
1773578476.92427,21.8,28.9,1,-4188,-124,12
1773578476.9448507,21.8,28.9,1,-4188,-124,12
1773578476.9654574,21.8,28.9,1,-4172,-104,-8
1773578476.9859912,21.8,28.9,1,-4172,-104,-8
1773578477.0067425,21.8,28.9,1,-4172,-104,-8
1773578477.0273962,21.8,28.9,0,-4148,-100,-12
1773578477.0481114,21.8,28.9,0,-4148,-100,-12
1773578477.0695622,21.8,28.9,1,-4164,-116,16
1773578477.0903404,21.8,28.9,1,-4164,-116,16
1773578477.111274,21.8,28.9,1,-4164,-116,16
1773578477.1318996,21.8,28.9,0,-4172,-104,-8
1773578477.1531873,21.8,28.9,0,-4172,-104,-8
1773578477.1736515,21.8,28.9,1,-4152,-116,4
1773578477.1941457,21.8,28.9,1,-4152,-116,4
1773578477.2145798,21.8,28.9,1,-4152,-116,4
1773578477.235164,21.8,28.9,0,-4144,-156,-8
1773578477.2559361,21.8,28.9,0,-4144,-156,-8
1773578477.2762985,21.8,28.9,1,-4176,-76,4
1773578477.2970164,21.8,28.9,1,-4176,-76,4
1773578477.3175423,21.8,28.9,1,-4176,-76,4
1773578477.3382132,21.8,28.9,1,-4164,-140,0
1773578477.3587744,21.8,28.9,1,-4164,-140,0
1773578477.3792348,21.8,28.9,1,-4164,-140,0
1773578477.399525,21.8,28.9,0,-4160,-128,-16
1773578477.4200995,21.8,28.9,0,-4160,-128,-16
1773578477.4405315,21.8,28.9,1,-4192,-104,44
1773578477.4609003,21.8,28.9,1,-4192,-104,44
1773578477.4813151,21.8,28.9,1,-4192,-104,44
1773578477.501908,21.8,28.9,0,-4184,-132,-16
1773578477.522427,21.8,28.9,0,-4184,-132,-16
1773578477.5431428,21.8,28.9,1,-4156,-88,-12
1773578477.5635164,21.8,28.9,1,-4156,-88,-12
1773578477.584198,21.8,28.9,1,-4156,-88,-12
1773578477.6046126,21.8,28.9,0,-4192,-132,24
1773578477.6250908,21.8,28.9,0,-4192,-132,24
1773578477.6454332,21.8,28.9,1,-4188,-128,4
1773578477.6656716,21.8,28.9,1,-4188,-128,4
1773578477.686293,21.8,28.9,1,-4188,-128,4
1773578477.7070317,21.8,28.9,0,-4172,-120,0
1773578477.7277617,21.8,28.9,0,-4172,-120,0
1773578477.7480197,21.8,28.9,0,-4172,-120,0
1773578477.768711,21.8,28.9,1,-4180,-104,16
1773578477.789182,21.8,28.9,1,-4180,-104,16
1773578477.8098412,21.8,28.9,1,-4176,-108,4
1773578477.830108,21.8,28.9,1,-4176,-108,4
1773578477.8504803,21.8,28.9,1,-4176,-108,4
1773578477.871216,21.8,28.9,0,-4152,-140,-16
1773578477.8917246,21.8,28.9,0,-4152,-140,-16
1773578477.9122987,21.8,28.9,0,-4164,-112,-12
1773578477.9328747,21.8,28.9,0,-4164,-112,-12
1773578477.954151,21.8,28.9,0,-4164,-112,-12
1773578477.974725,21.8,28.9,0,-4196,-128,32
1773578477.9952273,21.8,28.9,0,-4196,-128,32
1773578478.0157945,21.8,28.9,0,-4196,-128,32
1773578478.0362585,21.8,28.9,1,-4204,-116,-12
1773578478.057165,21.8,28.9,1,-4204,-116,-12
1773578478.0778484,21.8,28.9,1,-4144,-120,-12
1773578478.098267,21.8,28.9,1,-4144,-120,-12
1773578478.1188028,21.8,28.9,1,-4144,-120,-12
1773578478.139495,21.8,28.9,1,-4168,-92,12
1773578478.1599894,21.8,28.9,1,-4168,-92,12
1773578478.180363,21.8,28.9,1,-4204,-100,8
1773578478.2008734,21.8,28.9,1,-4204,-100,8
1773578478.2212675,21.8,28.9,1,-4204,-100,8
1773578478.2417767,21.8,28.9,1,-4172,-80,-20
1773578478.26244,21.8,28.9,1,-4172,-80,-20
1773578478.282717,21.8,28.9,1,-4168,-128,8
1773578478.3033946,21.8,28.9,1,-4168,-128,8
1773578478.323978,21.8,28.9,1,-4168,-128,8
1773578478.344276,21.8,28.9,1,-4168,-104,44
1773578478.3646235,21.8,28.9,1,-4168,-104,44
1773578478.3854632,21.8,28.9,1,-4168,-104,44
1773578478.4061224,21.8,28.9,0,-4188,-104,-4
1773578478.4265943,21.8,28.9,0,-4188,-104,-4
1773578478.4471898,21.8,28.9,1,-4160,-100,24
1773578478.467905,21.8,28.9,1,-4160,-100,24
1773578478.4883947,21.8,28.9,1,-4160,-100,24
1773578478.5091577,21.8,28.9,1,-4160,-100,24
1773578478.5295193,21.8,29.0,1,-4164,-108,16
1773578478.5502818,21.8,29.0,1,-4164,-108,16
1773578478.5708542,21.8,29.0,1,-4164,-108,16
1773578478.5915792,21.8,29.0,1,-4148,-88,0
1773578478.612046,21.8,29.0,1,-4148,-88,0
1773578478.6327083,21.8,29.0,1,-4200,-100,24
1773578478.6532218,21.8,29.0,1,-4200,-100,24
1773578478.6738698,21.8,29.0,1,-4200,-100,24
1773578478.694153,21.8,29.0,1,-4176,-120,0
1773578478.7144907,21.8,29.0,1,-4176,-120,0
1773578478.7353294,21.8,29.0,1,-4164,-116,-28
1773578478.7558618,21.8,29.0,1,-4164,-116,-28
1773578478.7763066,21.8,29.0,1,-4164,-116,-28
1773578478.7967093,21.8,29.0,1,-4180,-100,8
1773578478.8171403,21.8,29.0,1,-4180,-100,8
1773578478.8377256,21.8,29.0,0,-4196,-132,16
1773578478.8582375,21.8,29.0,0,-4196,-132,16
1773578478.8787403,21.8,29.0,0,-4196,-132,16
1773578478.8991559,21.8,29.0,0,-4156,-80,-24
1773578478.9198344,21.8,29.0,0,-4156,-80,-24
1773578478.9401264,21.8,29.0,0,-4156,-80,-24
1773578478.9608552,21.8,29.0,1,-4192,-104,28
1773578478.9815075,21.8,29.0,1,-4192,-104,28
1773578479.0019715,21.8,29.0,1,-4196,-96,4
1773578479.022277,21.8,29.0,1,-4196,-96,4
1773578479.0425797,21.8,29.0,1,-4196,-96,4
1773578479.063341,21.8,29.0,0,-4168,-144,-16
1773578479.084018,21.8,29.0,0,-4168,-144,-16
1773578479.1045783,21.8,29.0,1,-4140,-116,8
1773578479.1251397,21.8,29.0,1,-4140,-116,8
1773578479.1458817,21.8,29.0,1,-4140,-116,8
1773578479.168292,21.8,29.0,0,-4168,-120,-8
1773578479.1886883,21.8,29.0,0,-4168,-120,-8
1773578479.2093887,21.8,29.0,0,-4192,-104,-20
1773578479.2298775,21.8,29.0,0,-4192,-104,-20
1773578479.2502754,21.8,29.0,0,-4192,-104,-20
1773578479.270813,21.8,29.0,0,-4116,-136,-16
1773578479.2916086,21.8,29.0,0,-4116,-136,-16
1773578479.312311,21.8,29.0,0,-4116,-136,-16
1773578479.3329372,21.8,29.0,0,-4160,-140,20
1773578479.353479,21.8,29.0,0,-4160,-140,20
1773578479.374221,21.8,29.0,1,-4204,-128,-4
1773578479.3944056,21.8,29.0,1,-4204,-128,-4
1773578479.4151125,21.8,29.0,1,-4204,-128,-4
1773578479.4352791,21.8,29.0,1,-4168,-120,-24
1773578479.4560788,21.8,29.0,1,-4168,-120,-24
1773578479.476445,21.8,29.0,0,-4168,-124,0
1773578479.4969687,21.8,29.0,0,-4168,-124,0
1773578479.5179734,21.8,29.0,0,-4168,-124,0
1773578479.5387278,21.8,29.0,0,-4176,-84,8
1773578479.559537,21.8,29.0,0,-4176,-84,8
1773578479.5798142,21.8,29.0,1,-4168,-120,8
1773578479.6000884,21.8,29.0,1,-4168,-120,8
1773578479.6209924,21.8,29.0,1,-4168,-120,8
1773578479.6414258,21.8,29.0,0,-4164,-132,-4
1773578479.6619647,21.8,29.0,0,-4164,-132,-4
1773578479.6824012,21.8,29.0,0,-4164,-132,-4
1773578479.7030225,21.8,29.0,1,-4188,-128,12
1773578479.7237513,21.8,29.0,1,-4188,-128,12
1773578479.7442653,21.8,29.0,0,-4196,-84,8
1773578479.7648973,21.8,29.0,0,-4196,-84,8
1773578479.7853582,21.8,29.0,0,-4196,-84,8
1773578479.805999,21.8,29.0,1,-4152,-156,-12
1773578479.8264313,21.8,29.0,1,-4152,-156,-12
1773578479.8470228,21.8,29.0,1,-4184,-120,-12
1773578479.8676422,21.8,29.0,1,-4184,-120,-12
1773578479.8883379,21.8,29.0,1,-4184,-120,-12
1773578479.9086537,21.8,29.0,1,-4184,-108,16
1773578479.9292648,21.8,29.0,1,-4184,-108,16
1773578479.9499116,21.8,29.0,1,-4184,-108,16
1773578479.9701753,21.8,29.0,0,-4188,-116,-12
1773578479.9907207,21.8,29.0,0,-4188,-116,-12
1773578480.0113275,21.8,29.0,0,-4164,-144,-24
1773578480.0315864,21.8,29.0,0,-4164,-144,-24
1773578480.0523827,21.8,29.0,0,-4164,-144,-24
1773578480.0730805,21.8,29.0,0,-4168,-112,16
1773578480.093824,21.8,29.0,0,-4168,-112,16
1773578480.1150134,21.8,29.0,1,-4180,-104,-8
1773578480.135293,21.8,29.0,1,-4180,-104,-8
1773578480.155627,21.8,29.0,1,-4180,-104,-8
1773578480.1762724,21.8,29.0,1,-4176,-140,4
1773578480.1970549,21.8,29.0,1,-4176,-140,4
1773578480.2175174,21.8,29.0,1,-4176,-108,16
1773578480.2378764,21.8,29.0,1,-4176,-108,16
1773578480.2586205,21.8,29.0,1,-4176,-108,16
1773578480.2790172,21.8,29.0,1,-4176,-92,4
1773578480.2999573,21.8,29.0,1,-4176,-92,4
1773578480.3202388,21.8,29.0,1,-4176,-92,4
1773578480.3406458,21.8,29.0,0,-4156,-140,-40
1773578480.3611212,21.8,29.0,0,-4156,-140,-40
1773578480.3817484,21.8,29.0,0,-4160,-120,8
1773578480.4029005,21.8,29.0,0,-4160,-120,8
1773578480.423381,21.8,29.0,0,-4160,-120,8
1773578480.4440596,21.8,29.0,1,-4192,-112,4
1773578480.4647596,21.8,29.0,1,-4192,-112,4
1773578480.485397,21.8,29.0,1,-4140,-120,-12
1773578480.5059497,21.8,29.0,1,-4140,-120,-12
1773578480.5262802,21.8,29.0,1,-4140,-120,-12
1773578480.546991,21.8,29.0,1,-4140,-120,-12
1773578480.5673738,21.8,29.0,1,-4184,-104,-8
1773578480.5881526,21.8,29.0,1,-4184,-104,-8
1773578480.6090035,21.8,29.0,1,-4184,-104,-8
1773578480.6294193,21.8,29.0,1,-4140,-128,-4
1773578480.6501088,21.8,29.0,1,-4140,-128,-4
1773578480.6705468,21.8,29.0,0,-4164,-112,4
1773578480.6910138,21.8,29.0,0,-4164,-112,4
1773578480.7116191,21.8,29.0,0,-4164,-112,4
1773578480.732242,21.8,29.0,1,-4184,-116,12
1773578480.7527862,21.8,29.0,1,-4184,-116,12
1773578480.7734334,21.8,29.0,0,-4200,-100,-12
1773578480.7938864,21.8,29.0,0,-4200,-100,-12
1773578480.814367,21.8,29.0,0,-4200,-100,-12
1773578480.8356798,21.8,29.0,1,-4160,-124,0
1773578480.8562777,21.8,29.0,1,-4160,-124,0
1773578480.876558,21.8,29.0,1,-4168,-96,20
1773578480.8971617,21.8,29.0,1,-4168,-96,20
1773578480.9175785,21.8,29.0,1,-4168,-96,20
1773578480.938035,21.8,29.0,0,-4180,-120,0
1773578480.9590328,21.8,29.0,0,-4180,-120,0
1773578480.9796293,21.8,29.0,0,-4180,-120,0
1773578481.0004146,21.8,29.0,1,-4128,-136,-16
1773578481.0207384,21.8,29.0,1,-4128,-136,-16
1773578481.041382,21.8,29.0,1,-4196,-128,12
1773578481.0619235,21.8,29.0,1,-4196,-128,12
1773578481.0823858,21.8,29.0,1,-4196,-128,12
1773578481.102819,21.8,29.0,1,-4224,-104,36
1773578481.123236,21.8,29.0,1,-4224,-104,36
1773578481.143577,21.8,29.0,1,-4172,-112,0
1773578481.1640706,21.8,29.0,1,-4172,-112,0
1773578481.1850631,21.8,29.0,1,-4172,-112,0
1773578481.2054636,21.8,29.0,1,-4164,-124,-24
1773578481.2259638,21.8,29.0,1,-4164,-124,-24
1773578481.2464352,21.8,29.0,1,-4164,-124,-24
1773578481.2672186,21.8,29.0,1,-4184,-124,24
1773578481.2879689,21.8,29.0,1,-4184,-124,24
1773578481.3085504,21.8,29.0,1,-4168,-112,12
1773578481.3293056,21.8,29.0,1,-4168,-112,12
1773578481.3501482,21.8,29.0,1,-4168,-112,12
1773578481.370693,21.8,29.0,0,-4156,-124,-8
1773578481.3912296,21.8,29.0,0,-4156,-124,-8
1773578481.411944,21.8,29.0,0,-4176,-108,-4
1773578481.4322915,21.8,29.0,0,-4176,-108,-4
1773578481.453076,21.8,29.0,0,-4176,-108,-4
1773578481.473786,21.8,29.0,1,-4184,-128,0
1773578481.494217,21.8,29.0,1,-4184,-128,0
1773578481.5146112,21.8,29.0,1,-4172,-112,4
1773578481.5350225,21.8,29.0,1,-4172,-112,4
1773578481.555534,21.8,29.0,1,-4172,-112,4
1773578481.5759256,21.8,29.0,1,-4196,-100,4
1773578481.5963054,21.8,29.0,1,-4196,-100,4
1773578481.6166492,21.8,29.0,1,-4196,-100,4
1773578481.637288,21.8,29.0,1,-4188,-116,8
1773578481.658235,21.8,29.0,1,-4188,-116,8
1773578481.6786854,21.8,29.0,1,-4192,-124,-8
1773578481.6992826,21.8,29.0,1,-4192,-124,-8
1773578481.7197356,21.8,29.0,1,-4192,-124,-8
1773578481.740173,21.8,29.0,1,-4136,-124,-4
1773578481.7606127,21.8,29.0,1,-4136,-124,-4
1773578481.781136,21.8,29.0,1,-4224,-140,12
1773578481.8018816,21.8,29.0,1,-4224,-140,12
1773578481.8221345,21.8,29.0,1,-4224,-140,12
1773578481.842906,21.8,29.0,0,-4164,-116,-16
1773578481.863309,21.8,29.0,0,-4164,-116,-16
1773578481.8838232,21.8,29.0,0,-4164,-116,-16
1773578481.904559,21.8,29.0,1,-4168,-108,4
1773578481.9250345,21.8,29.0,1,-4168,-108,4
1773578481.9458034,21.8,29.0,1,-4200,-96,8
1773578481.966614,21.8,29.0,1,-4200,-96,8
1773578481.9873176,21.8,29.0,1,-4200,-96,8
1773578482.0080993,21.8,29.0,1,-4168,-124,8
1773578482.0288756,21.8,29.0,1,-4168,-124,8
1773578482.0495121,21.8,29.0,0,-4180,-128,4
1773578482.0698102,21.8,29.0,0,-4180,-128,4
1773578482.0904756,21.8,29.0,0,-4180,-128,4
1773578482.111244,21.8,29.0,1,-4164,-112,0
1773578482.131841,21.8,29.0,1,-4164,-112,0
1773578482.1524704,21.8,29.0,1,-4192,-108,4
1773578482.1733055,21.8,29.0,1,-4192,-108,4
1773578482.194173,21.8,29.0,1,-4192,-108,4
1773578482.2145338,21.8,29.0,1,-4180,-88,-4
1773578482.2352176,21.8,29.0,1,-4180,-88,-4
1773578482.2566051,21.8,29.0,1,-4180,-88,-4
1773578482.2772918,21.8,29.0,1,-4160,-124,-4
1773578482.2977114,21.8,29.0,1,-4160,-124,-4
1773578482.318659,21.8,29.0,0,-4196,-124,16
1773578482.3395112,21.8,29.0,0,-4196,-124,16
1773578482.3601813,21.8,29.0,0,-4196,-124,16
1773578482.38087,21.8,29.0,1,-4192,-88,16
1773578482.4021342,21.8,29.0,1,-4192,-88,16
1773578482.4227886,21.8,29.0,0,-4176,-112,-28
1773578482.4433062,21.8,29.0,0,-4176,-112,-28
1773578482.4636104,21.8,29.0,0,-4176,-112,-28
1773578482.4839754,21.8,29.0,1,-4176,-116,0
1773578482.5046036,21.8,29.0,1,-4176,-116,0
1773578482.525178,21.8,29.0,1,-4180,-120,24
1773578482.5457723,21.8,29.0,1,-4180,-120,24
1773578482.5662065,21.8,29.0,1,-4180,-120,24
1773578482.5869956,21.8,29.0,1,-4180,-120,24
1773578482.6073503,21.8,29.0,1,-4176,-136,36
1773578482.627722,21.8,29.0,1,-4176,-136,36
1773578482.6483195,21.8,29.0,1,-4176,-136,36
1773578482.6687682,21.8,29.0,1,-4192,-80,12
1773578482.6892147,21.8,29.0,1,-4192,-80,12
1773578482.7097232,21.8,29.0,0,-4156,-120,-8
1773578482.7302046,21.8,29.0,0,-4156,-120,-8
1773578482.7507532,21.8,29.0,0,-4156,-120,-8
1773578482.7712111,21.8,29.0,1,-4160,-140,-8
1773578482.7918563,21.8,29.0,1,-4160,-140,-8
1773578482.8122144,21.8,29.0,1,-4184,-96,32
1773578482.8330116,21.8,29.0,1,-4184,-96,32
1773578482.8536682,21.8,29.0,1,-4184,-96,32
1773578482.8744462,21.8,29.0,1,-4184,-116,12
1773578482.8950727,21.8,29.0,1,-4184,-116,12
1773578482.915601,21.8,29.0,1,-4184,-116,12
1773578482.936288,21.8,29.0,1,-4156,-104,-8
1773578482.956868,21.8,29.0,1,-4156,-104,-8
1773578482.97753,21.8,29.0,1,-4184,-104,32
1773578482.998274,21.8,29.0,1,-4184,-104,32
1773578483.0187216,21.8,29.0,1,-4184,-104,32
1773578483.0394945,21.8,29.0,1,-4192,-112,4
1773578483.0601037,21.8,29.0,1,-4192,-112,4
1773578483.0807166,21.8,29.0,1,-4176,-124,-24
1773578483.1013036,21.8,29.0,1,-4176,-124,-24
1773578483.1219068,21.8,29.0,1,-4176,-124,-24
1773578483.142437,21.8,29.0,0,-4196,-136,4
1773578483.1630037,21.8,29.0,0,-4196,-136,4
1773578483.1836445,21.8,29.0,1,-4200,-108,24
1773578483.204474,21.8,29.0,1,-4200,-108,24
1773578483.2251601,21.8,29.0,1,-4200,-108,24
1773578483.2462363,21.8,29.0,1,-4172,-124,-12
1773578483.2667727,21.8,29.0,1,-4172,-124,-12
1773578483.2875178,21.8,29.0,1,-4172,-136,4
1773578483.3083065,21.8,29.0,1,-4172,-136,4
1773578483.3291445,21.8,29.0,1,-4172,-136,4
1773578483.3497272,21.8,29.0,0,-4168,-124,16
1773578483.370204,21.8,29.0,0,-4168,-124,16
1773578483.3907995,21.8,29.0,0,-4168,-124,16
1773578483.411137,21.8,29.0,1,-4204,-116,-12
1773578483.431723,21.8,29.0,1,-4204,-116,-12
1773578483.4524565,21.8,29.0,0,-4160,-120,-24
1773578483.4733126,21.8,29.0,0,-4160,-120,-24
1773578483.4937813,21.8,29.0,0,-4160,-120,-24
1773578483.5141284,21.8,29.0,1,-4188,-100,36
1773578483.5345826,21.8,29.0,1,-4188,-100,36
1773578483.5549812,21.8,29.0,1,-4188,-112,-4
1773578483.576303,21.8,29.0,1,-4188,-112,-4
1773578483.5970566,21.8,29.0,1,-4188,-112,-4
1773578483.6179638,21.8,29.0,1,-4152,-144,-8
1773578483.6384158,21.8,29.0,1,-4152,-144,-8
1773578483.6592553,21.8,29.0,1,-4156,-108,-12
1773578483.6795194,21.8,29.0,1,-4156,-108,-12
1773578483.6999633,21.8,29.0,1,-4156,-108,-12
1773578483.7203708,21.8,29.0,1,-4180,-112,0
1773578483.7406209,21.8,29.0,1,-4180,-112,0
1773578483.7613354,21.8,29.0,1,-4180,-112,0
1773578483.7819622,21.8,29.0,1,-4172,-124,0
1773578483.8023238,21.8,29.0,1,-4172,-124,0
1773578483.8239877,21.8,29.0,1,-4172,-140,-20
1773578483.8447437,21.8,29.0,1,-4172,-140,-20
1773578483.8651059,21.8,29.0,1,-4172,-140,-20
1773578483.8865309,21.8,29.0,0,-4184,-124,8
1773578483.9067419,21.8,29.0,0,-4184,-124,8
1773578483.9271076,21.8,29.0,1,-4176,-128,0
1773578483.9474747,21.8,29.0,1,-4176,-128,0
1773578483.9679022,21.8,29.0,1,-4176,-128,0
1773578483.9891489,21.8,29.0,1,-4172,-128,-16
1773578484.0099752,21.8,29.0,1,-4172,-128,-16
1773578484.0303478,21.8,29.0,1,-4172,-108,28
1773578484.0509086,21.8,29.0,1,-4172,-108,28
1773578484.0715008,21.8,29.0,1,-4172,-108,28
1773578484.0917706,21.8,29.0,0,-4200,-84,16
1773578484.1124754,21.8,29.0,0,-4200,-84,16
1773578484.1332726,21.8,29.0,0,-4200,-84,16
1773578484.1536384,21.8,29.0,0,-4184,-124,-8
1773578484.1746123,21.8,29.0,0,-4184,-124,-8
1773578484.1952581,21.8,29.0,0,-4136,-140,-8
1773578484.215765,21.8,29.0,0,-4136,-140,-8
1773578484.2372053,21.8,29.0,0,-4136,-140,-8
1773578484.2575016,21.8,29.0,1,-4168,-112,32
1773578484.2778857,21.8,29.0,1,-4168,-112,32
1773578484.2984543,21.8,29.0,1,-4192,-104,8
1773578484.3189728,21.8,29.0,1,-4192,-104,8
1773578484.339633,21.8,29.0,1,-4192,-104,8
1773578484.360255,21.8,29.0,1,-4168,-120,-16
1773578484.3808453,21.8,29.0,1,-4168,-120,-16
1773578484.401348,21.8,29.0,1,-4172,-144,24
1773578484.4225333,21.8,29.0,1,-4172,-144,24
1773578484.4432275,21.8,29.0,1,-4172,-144,24
1773578484.4639606,21.8,29.0,1,-4176,-124,12
1773578484.484486,21.8,29.0,1,-4176,-124,12
1773578484.5048563,21.8,29.0,1,-4176,-124,12
1773578484.5254943,21.8,29.0,0,-4180,-116,-28
1773578484.5458055,21.8,29.0,0,-4180,-116,-28
1773578484.566118,21.8,29.0,0,-4152,-112,0
1773578484.58673,21.8,29.0,0,-4152,-112,0
1773578484.607158,21.8,29.0,0,-4152,-112,0
1773578484.6275225,21.8,29.0,0,-4152,-112,0
1773578484.6482973,21.8,29.0,0,-4176,-152,-28
1773578484.6690674,21.8,29.0,0,-4176,-152,-28
1773578484.6895366,21.8,29.0,0,-4176,-152,-28
1773578484.7100868,21.8,29.0,1,-4184,-96,0
1773578484.7304184,21.8,29.0,1,-4184,-96,0
1773578484.7519813,21.8,29.0,1,-4156,-104,12
1773578484.7725782,21.8,29.0,1,-4156,-104,12
1773578484.7930124,21.8,29.0,1,-4156,-104,12
1773578484.8138502,21.8,29.0,0,-4192,-92,-16
1773578484.83446,21.8,29.0,0,-4192,-92,-16
1773578484.8548431,21.8,29.0,0,-4144,-120,-8
1773578484.8753834,21.8,29.0,0,-4144,-120,-8
1773578484.8959103,21.8,29.0,0,-4144,-120,-8
1773578484.916376,21.8,29.0,1,-4168,-132,56
1773578484.9369533,21.8,29.0,1,-4168,-132,56
1773578484.957588,21.8,29.0,1,-4172,-108,-8
1773578484.9780447,21.8,29.0,1,-4172,-108,-8
1773578484.998523,21.8,29.0,1,-4172,-108,-8
1773578485.019744,21.8,29.0,1,-4172,-116,-32
1773578485.0405483,21.8,29.0,1,-4172,-116,-32
1773578485.0610871,21.8,29.0,1,-4172,-116,-32
1773578485.082231,21.8,29.0,1,-4164,-140,4
1773578485.1025853,21.8,29.0,1,-4164,-140,4
1773578485.1230476,21.8,29.0,1,-4204,-148,0
1773578485.144036,21.8,29.0,1,-4204,-148,0
1773578485.164542,21.8,29.0,1,-4204,-148,0
1773578485.1858368,21.8,29.0,1,-4176,-152,-4
1773578485.2062404,21.8,29.0,1,-4176,-152,-4
1773578485.2266045,21.8,29.0,1,-4156,-112,8
1773578485.2469518,21.8,29.0,1,-4156,-112,8
1773578485.2674792,21.8,29.0,1,-4156,-112,8
1773578485.2878346,21.8,29.0,1,-4188,-108,-8
1773578485.3083832,21.8,29.0,1,-4188,-108,-8
1773578485.3293202,21.8,29.0,1,-4188,-80,-32
1773578485.3498044,21.8,29.0,1,-4188,-80,-32
1773578485.3704069,21.8,29.0,1,-4188,-80,-32
1773578485.3909125,21.8,29.0,1,-4128,-188,-4
1773578485.4116056,21.8,29.0,1,-4128,-188,-4
1773578485.431871,21.8,29.0,1,-4128,-188,-4
1773578485.4523313,21.8,29.0,0,-4164,12,0
1773578485.4733982,21.8,29.0,0,-4164,12,0
1773578485.4938152,21.8,29.0,0,-4160,-132,28
1773578485.5146432,21.8,29.0,0,-4160,-132,28
1773578485.5353243,21.8,29.0,0,-4160,-132,28
1773578485.555884,21.8,29.0,0,-4208,-92,-36
1773578485.5763822,21.8,29.0,0,-4208,-92,-36
1773578485.5969224,21.8,29.0,1,-4184,-136,0
1773578485.6176052,21.8,29.0,1,-4184,-136,0
1773578485.638098,21.8,29.0,1,-4184,-136,0
1773578485.6587956,21.8,29.0,1,-4140,-168,40
1773578485.6794286,21.8,29.0,1,-4140,-168,40
1773578485.6999483,21.8,29.0,1,-4168,-128,-8
1773578485.7205846,21.8,29.0,1,-4168,-128,-8
1773578485.7411594,21.8,29.0,1,-4168,-128,-8
1773578485.761628,21.8,29.0,1,-4160,-148,-40
1773578485.7822795,21.8,29.0,1,-4160,-148,-40
1773578485.8025322,21.8,29.0,1,-4160,-148,-40
1773578485.822861,21.8,29.0,1,-4168,-144,36
1773578485.8432367,21.8,29.0,1,-4168,-144,36
1773578485.8639715,21.8,29.0,1,-4172,-112,-12
1773578485.884554,21.8,29.0,1,-4172,-112,-12
1773578485.9052238,21.8,29.0,1,-4172,-112,-12
1773578485.925798,21.8,29.0,1,-4196,-104,-56
1773578485.9461212,21.8,29.0,1,-4196,-104,-56
1773578485.9664078,21.8,29.0,0,-4160,-208,40
1773578485.9871473,21.8,29.0,0,-4160,-208,40
1773578486.007739,21.8,29.0,0,-4160,-208,40
1773578486.0283172,21.8,29.0,0,-4192,-68,28
1773578486.0487561,21.8,29.0,0,-4192,-68,28
1773578486.0691981,21.8,29.0,0,-4192,-68,28
1773578486.0895329,21.8,29.0,1,-4164,-100,24
1773578486.1099422,21.8,29.0,1,-4164,-100,24
1773578486.1305842,21.8,29.0,0,-4208,60,16
1773578486.1511977,21.8,29.0,0,-4208,60,16
1773578486.1717355,21.8,29.0,0,-4208,60,16
1773578486.192703,21.8,29.0,1,-4196,-104,36
1773578486.213131,21.8,29.0,1,-4196,-104,36
1773578486.2342753,21.8,29.0,0,-4196,-100,0
1773578486.254991,21.8,29.0,0,-4196,-100,0
1773578486.275414,21.8,29.0,0,-4196,-100,0
1773578486.2961142,21.8,29.0,1,-4168,-124,-8
1773578486.316422,21.8,29.0,1,-4168,-124,-8
1773578486.3368788,21.8,29.0,1,-4180,-136,36
1773578486.3574162,21.8,29.0,1,-4180,-136,36
1773578486.3779752,21.8,29.0,1,-4180,-136,36
1773578486.3988125,21.8,29.0,1,-4192,-148,16
1773578486.419581,21.8,29.0,1,-4192,-148,16
1773578486.4399254,21.8,29.0,1,-4192,-148,16
1773578486.4604518,21.8,29.0,1,-4176,-80,-24
1773578486.48076,21.8,29.0,1,-4176,-80,-24
1773578486.5012474,21.8,29.0,1,-4164,-128,8
1773578486.5216165,21.8,29.0,1,-4164,-128,8
1773578486.5426447,21.8,29.0,1,-4164,-128,8
1773578486.5629542,21.8,29.0,0,-4184,-164,20
1773578486.583764,21.8,29.0,0,-4184,-164,20
1773578486.6040928,21.8,29.0,1,-4152,-64,-24
1773578486.6243372,21.8,29.0,1,-4152,-64,-24
1773578486.645093,21.8,29.0,1,-4152,-64,-24
1773578486.665897,21.8,29.0,1,-4152,-64,-24
1773578486.6866164,21.8,29.0,0,-4160,-132,-20
1773578486.7071795,21.8,29.0,0,-4160,-132,-20
1773578486.7279062,21.8,29.0,0,-4160,-132,-20
1773578486.7485027,21.8,29.0,0,-4144,-144,-16
1773578486.769074,21.8,29.0,0,-4144,-144,-16
1773578486.7896342,21.8,29.0,0,-4176,-56,-4
1773578486.810141,21.8,29.0,0,-4176,-56,-4
1773578486.8303885,21.8,29.0,0,-4176,-56,-4
1773578486.850875,21.8,29.0,1,-4136,-120,0
1773578486.8712106,21.8,29.0,1,-4136,-120,0
1773578486.891372,21.8,29.0,0,-4188,-148,-24
1773578486.9117882,21.8,29.0,0,-4188,-148,-24
1773578486.9322555,21.8,29.0,0,-4188,-148,-24
1773578486.9528716,21.8,29.0,1,-4184,-60,-40
1773578486.9732447,21.8,29.0,1,-4184,-60,-40
1773578486.9934742,21.8,29.0,1,-4184,-60,-40
1773578487.0138052,21.8,29.0,1,-4176,-104,16
1773578487.0354748,21.8,29.0,1,-4176,-104,16
1773578487.055855,21.8,29.0,1,-4176,-96,-20
1773578487.0765426,21.8,29.0,1,-4176,-96,-20
1773578487.0971973,21.8,29.0,1,-4176,-96,-20
1773578487.1192157,21.8,29.0,1,-4192,-48,0
1773578487.1395373,21.8,29.0,1,-4192,-48,0
1773578487.1599188,21.8,29.0,1,-4172,-128,8
1773578487.1805308,21.8,29.0,1,-4172,-128,8
1773578487.200986,21.8,29.0,1,-4172,-128,8
1773578487.2217438,21.8,29.0,1,-4180,-120,0
1773578487.2424135,21.8,29.0,1,-4180,-120,0
1773578487.2626998,21.8,29.0,0,-4208,-132,-56
1773578487.2832582,21.8,29.0,0,-4208,-132,-56
1773578487.3039987,21.8,29.0,0,-4208,-132,-56
1773578487.3244176,21.8,29.0,0,-4160,-124,40
1773578487.3447914,21.8,29.0,0,-4160,-124,40
1773578487.36525,21.8,29.0,0,-4160,-124,40
1773578487.3858054,21.8,29.0,1,-4176,-80,0
1773578487.4060113,21.8,29.0,1,-4176,-80,0
1773578487.42679,21.8,29.0,1,-4192,-120,-12
1773578487.4474304,21.8,29.0,1,-4192,-120,-12
1773578487.4679408,21.8,29.0,1,-4192,-120,-12
1773578487.4884064,21.8,29.0,1,-4184,-124,20
1773578487.5091367,21.8,29.0,1,-4184,-124,20
1773578487.5294225,21.8,29.0,1,-4148,-128,52
1773578487.550036,21.8,29.0,1,-4148,-128,52
1773578487.5703657,21.8,29.0,1,-4148,-128,52
1773578487.5906227,21.8,29.0,1,-4184,-168,20
1773578487.6113834,21.8,29.0,1,-4184,-168,20
1773578487.6321967,21.8,29.0,1,-4184,-168,20
1773578487.65261,21.8,29.0,1,-4176,-120,8
1773578487.6732116,21.8,29.0,1,-4176,-120,8
1773578487.6937175,21.8,29.0,1,-4184,-208,24
1773578487.7142062,21.8,29.0,1,-4184,-208,24
1773578487.7349734,21.8,29.0,1,-4184,-208,24
1773578487.7556827,21.8,29.0,0,-4168,-76,0
1773578487.7761908,21.8,29.0,0,-4168,-76,0
1773578487.7967327,21.8,29.0,1,-4196,-96,-8
1773578487.8171914,21.8,29.0,1,-4196,-96,-8
1773578487.8376243,21.8,29.0,1,-4196,-96,-8
1773578487.8585129,21.8,29.0,0,-4160,-136,4
1773578487.8790267,21.8,29.0,0,-4160,-136,4
1773578487.8995361,21.8,29.0,1,-4180,-124,12
1773578487.9199104,21.8,29.0,1,-4180,-124,12
1773578487.9404511,21.8,29.0,1,-4180,-124,12
1773578487.9612675,21.8,29.0,1,-4136,-88,12
1773578487.9819434,21.8,29.0,1,-4136,-88,12
1773578488.0026867,21.8,29.0,1,-4136,-88,12
1773578488.0234277,21.8,29.0,1,-4164,-84,-24
1773578488.0441155,21.8,29.0,1,-4164,-84,-24
1773578488.0646448,21.8,29.0,1,-4168,-112,36
1773578488.085276,21.8,29.0,1,-4168,-112,36
1773578488.1063678,21.8,29.0,1,-4168,-112,36
1773578488.1272318,21.8,29.0,0,-4188,-104,-4
1773578488.1476715,21.8,29.0,0,-4188,-104,-4
1773578488.1685197,21.8,29.0,1,-4180,-108,-4
1773578488.188857,21.8,29.0,1,-4180,-108,-4
1773578488.2093241,21.8,29.0,1,-4180,-108,-4
1773578488.2300746,21.8,29.0,1,-4180,-28,16
1773578488.2508273,21.8,29.0,1,-4180,-28,16
1773578488.2711265,21.8,29.0,1,-4204,-132,-4
1773578488.2918484,21.8,29.0,1,-4204,-132,-4
1773578488.312313,21.8,29.0,1,-4204,-132,-4
1773578488.3329332,21.8,29.0,0,-4160,-104,-52
1773578488.3533564,21.8,29.0,0,-4160,-104,-52
1773578488.373909,21.8,29.0,0,-4160,-104,-52
1773578488.3942034,21.8,29.0,1,-4148,-128,8
1773578488.415247,21.8,29.0,1,-4148,-128,8
1773578488.4356546,21.8,29.0,1,-4168,-92,-24
1773578488.4563046,21.8,29.0,1,-4168,-92,-24
1773578488.4767833,21.8,29.0,1,-4168,-92,-24
1773578488.4975169,21.8,29.0,0,-4204,-104,-4
1773578488.5189028,21.8,29.0,0,-4204,-104,-4
1773578488.539751,21.8,29.0,1,-4172,-116,-28
1773578488.5603163,21.8,29.0,1,-4172,-116,-28
1773578488.580906,21.8,29.0,1,-4172,-116,-28
1773578488.6011927,21.8,29.0,1,-4184,-120,8
1773578488.621592,21.8,29.0,1,-4184,-120,8
1773578488.6422524,21.8,29.0,1,-4196,-148,20
1773578488.662569,21.8,29.0,1,-4196,-148,20
1773578488.6830902,21.8,29.0,1,-4196,-148,20
1773578488.703732,21.8,29.0,1,-4196,-148,20
1773578488.7242348,21.8,29.0,1,-4184,-84,44
1773578488.7446754,21.8,29.0,1,-4184,-84,44
1773578488.7650087,21.8,29.0,1,-4184,-84,44
1773578488.7861798,21.8,29.0,1,-4212,-56,0
1773578488.806603,21.8,29.0,1,-4212,-56,0
1773578488.8269517,21.8,29.0,1,-4208,-32,28
1773578488.847598,21.8,29.0,1,-4208,-32,28
1773578488.8678555,21.8,29.0,1,-4208,-32,28
1773578488.8882272,21.8,29.0,1,-4164,-148,-4
1773578488.9089246,21.8,29.0,1,-4164,-148,-4
1773578488.9295075,21.8,29.0,1,-4164,-148,-4
1773578488.9500074,21.8,29.0,1,-4192,-120,36
1773578488.9705496,21.8,29.0,1,-4192,-120,36
1773578488.9910045,21.8,29.0,1,-4176,-108,-32
1773578489.0112686,21.8,29.0,1,-4176,-108,-32
1773578489.0318966,21.8,29.0,1,-4176,-108,-32
1773578489.052822,21.8,29.0,1,-4156,-140,-16
1773578489.0731733,21.8,29.0,1,-4156,-140,-16
1773578489.0934212,21.8,29.0,0,-4180,-152,24
1773578489.113899,21.8,29.0,0,-4180,-152,24
1773578489.134571,21.8,29.0,0,-4180,-152,24
1773578489.1555276,21.8,29.0,0,-4188,-20,-16
1773578489.1759884,21.8,29.0,0,-4188,-20,-16
1773578489.196398,21.8,29.0,1,-4188,-108,0
1773578489.216859,21.8,29.0,1,-4188,-108,0
1773578489.2373307,21.8,29.0,1,-4188,-108,0
1773578489.2581,21.8,29.0,0,-4176,-136,12
1773578489.2784605,21.8,29.0,0,-4176,-136,12
1773578489.2986221,21.8,29.0,0,-4176,-136,12
1773578489.3189635,21.8,29.0,1,-4172,-156,12
1773578489.3393188,21.8,29.0,1,-4172,-156,12
1773578489.3595684,21.8,29.0,1,-4164,-124,-32
1773578489.3801486,21.8,29.0,1,-4164,-124,-32
1773578489.4007034,21.8,29.0,1,-4164,-124,-32
1773578489.4212515,21.8,29.0,0,-4176,-88,-20
1773578489.44163,21.8,29.0,0,-4176,-88,-20
1773578489.4620492,21.8,29.0,1,-4196,-168,32
1773578489.4826183,21.8,29.0,1,-4196,-168,32
1773578489.5031617,21.8,29.0,1,-4196,-168,32
1773578489.5238986,21.8,29.0,1,-4176,-140,16
1773578489.5445292,21.8,29.0,1,-4176,-140,16
1773578489.5649388,21.8,29.0,1,-4176,-140,16
1773578489.585818,21.8,29.0,1,-4172,-80,-36
1773578489.6063807,21.8,29.0,1,-4172,-80,-36
1773578489.6269193,21.8,29.0,1,-4212,-100,56
1773578489.6474035,21.8,29.0,1,-4212,-100,56
1773578489.6681104,21.8,29.0,1,-4212,-100,56
1773578489.6886966,21.8,29.0,0,-4180,-80,-16
1773578489.70904,21.8,29.0,0,-4180,-80,-16
1773578489.7293446,21.8,29.0,0,-4172,-128,12
1773578489.7501054,21.8,29.0,0,-4172,-128,12
1773578489.770623,21.8,29.0,0,-4172,-128,12
1773578489.7912598,21.8,29.0,1,-4176,-72,40
1773578489.8117077,21.8,29.0,1,-4176,-72,40
1773578489.8321161,21.8,29.0,1,-4192,-124,-4
1773578489.8527644,21.8,29.0,1,-4192,-124,-4
1773578489.8732595,21.8,29.0,1,-4192,-124,-4
1773578489.8939056,21.8,29.0,1,-4164,-132,-4
1773578489.9144135,21.8,29.0,1,-4164,-132,-4
1773578489.9360542,21.8,29.0,1,-4164,-132,-4
1773578489.9566565,21.8,29.0,1,-4152,-68,-16
1773578489.9774134,21.8,29.0,1,-4152,-68,-16
1773578489.9981818,21.8,29.0,0,-4188,-128,16
1773578490.0192907,21.8,29.0,0,-4188,-128,16
1773578490.0398204,21.8,29.0,0,-4188,-128,16
1773578490.0611303,21.8,29.0,1,-4172,-200,4
1773578490.0818825,21.8,29.0,1,-4172,-200,4
1773578490.1028538,21.8,29.0,1,-4172,-120,-8
1773578490.1235118,21.8,29.0,1,-4172,-120,-8
1773578490.1440396,21.8,29.0,1,-4172,-120,-8
1773578490.1647482,21.8,29.0,1,-4136,-124,16
1773578490.1855233,21.8,29.0,1,-4136,-124,16
1773578490.2059321,21.8,29.0,1,-4176,-124,-12
1773578490.2265568,21.8,29.0,1,-4176,-124,-12
1773578490.2472,21.8,29.0,1,-4176,-124,-12
1773578490.2680566,21.8,29.0,1,-4148,-84,16
1773578490.2883544,21.8,29.0,1,-4148,-84,16
1773578490.3088505,21.8,29.0,1,-4160,-96,4
1773578490.3295643,21.8,29.0,1,-4160,-96,4
1773578490.3503428,21.8,29.0,1,-4160,-96,4
1773578490.3707626,21.8,29.0,1,-4164,-80,-4
1773578490.3916116,21.8,29.0,1,-4164,-80,-4
1773578490.4119895,21.8,29.0,1,-4164,-80,-4
1773578490.432701,21.8,29.0,1,-4204,-124,8
1773578490.453408,21.8,29.0,1,-4204,-124,8
1773578490.4740632,21.8,29.0,0,-4184,-84,-8
1773578490.4943402,21.8,29.0,0,-4184,-84,-8
1773578490.514615,21.8,29.0,0,-4184,-84,-8
1773578490.5361974,21.8,29.0,1,-4176,-96,32
1773578490.5567873,21.8,29.0,1,-4176,-96,32
1773578490.5770926,21.8,29.0,0,-4176,-168,-16
1773578490.5973861,21.8,29.0,0,-4176,-168,-16
1773578490.6178212,21.8,29.0,0,-4176,-168,-16
1773578490.6382732,21.8,29.0,1,-4196,-96,4
1773578490.6586423,21.8,29.0,1,-4196,-96,4
1773578490.6792774,21.8,29.0,1,-4196,-96,4
1773578490.6997426,21.8,29.0,1,-4168,-196,12
1773578490.7203987,21.8,29.0,1,-4168,-196,12
1773578490.740918,21.8,29.0,1,-4168,-196,12
1773578490.7616525,21.8,29.0,0,-4140,-56,-28
1773578490.7821689,21.8,29.0,0,-4140,-56,-28
1773578490.8029125,21.8,29.0,0,-4140,-56,-28
1773578490.823167,21.8,29.0,0,-4164,-164,0
1773578490.8438034,21.8,29.0,0,-4164,-164,0
1773578490.8643887,21.8,29.0,1,-4184,-68,16
1773578490.8851957,21.8,29.0,1,-4184,-68,16
1773578490.9057446,21.8,29.0,1,-4184,-68,16
1773578490.9263015,21.8,29.0,0,-4184,-144,8
1773578490.946947,21.8,29.0,0,-4184,-144,8
1773578490.9671729,21.8,29.0,0,-4184,-144,8
1773578490.9880788,21.8,29.0,1,-4132,-100,-12
1773578491.0083163,21.8,29.0,1,-4132,-100,-12
1773578491.0288463,21.8,29.0,1,-4208,-88,24
1773578491.0493689,21.8,29.0,1,-4208,-88,24
1773578491.0696127,21.8,29.0,1,-4208,-88,24
1773578491.0902262,21.8,29.0,1,-4168,-124,-20
1773578491.110763,21.8,29.0,1,-4168,-124,-20
1773578491.131302,21.8,29.0,0,-4164,-152,-52
1773578491.151927,21.8,29.0,0,-4164,-152,-52
1773578491.1722753,21.8,29.0,0,-4164,-152,-52
1773578491.192686,21.8,29.0,1,-4200,-112,24
1773578491.2134464,21.8,29.0,1,-4200,-112,24
1773578491.234504,21.8,29.0,1,-4200,-112,24
1773578491.2547748,21.8,29.0,1,-4184,-48,-8
1773578491.2751255,21.8,29.0,1,-4184,-48,-8
1773578491.2954986,21.8,29.0,1,-4152,-132,-20
1773578491.316176,21.8,29.0,1,-4152,-132,-20
1773578491.3366106,21.8,29.0,1,-4152,-132,-20
1773578491.3576822,21.8,29.0,1,-4176,-128,20
1773578491.3780737,21.8,29.0,1,-4176,-128,20
1773578491.398438,21.8,29.0,1,-4212,-132,-20
1773578491.419022,21.8,29.0,1,-4212,-132,-20
1773578491.4398425,21.8,29.0,1,-4212,-132,-20
1773578491.4606118,21.8,29.0,1,-4168,-96,32
1773578491.481078,21.8,29.0,1,-4168,-96,32
1773578491.5013444,21.8,29.0,1,-4156,-100,16
1773578491.52195,21.8,29.0,1,-4156,-100,16
1773578491.5424316,21.8,29.0,1,-4156,-100,16
1773578491.5631623,21.8,29.0,0,-4148,-152,0
1773578491.5835707,21.8,29.0,0,-4148,-152,0
1773578491.604361,21.8,29.0,0,-4148,-152,0
1773578491.6248345,21.8,29.0,1,-4212,-64,48
1773578491.6455204,21.8,29.0,1,-4212,-64,48
1773578491.6663454,21.8,29.0,1,-4148,-168,-20
1773578491.6868043,21.8,29.0,1,-4148,-168,-20
1773578491.7071683,21.8,29.0,1,-4148,-168,-20
1773578491.727738,21.8,29.0,0,-4172,-52,48
1773578491.748121,21.8,29.0,0,-4172,-52,48
1773578491.7687488,21.8,29.0,1,-4192,-136,24
1773578491.7895787,21.8,29.0,1,-4192,-136,24
1773578491.8103907,21.8,29.0,1,-4192,-136,24
1773578491.8309486,21.8,29.0,0,-4156,-140,-4
1773578491.8519268,21.8,29.0,0,-4156,-140,-4
1773578491.872295,21.8,29.0,1,-4152,-108,12
1773578491.892937,21.8,29.0,1,-4152,-108,12
1773578491.9133248,21.8,29.0,1,-4152,-108,12
1773578491.9337888,21.8,29.0,0,-4176,-100,-8
1773578491.9543746,21.8,29.0,0,-4176,-100,-8
1773578491.9747698,21.8,29.0,0,-4176,-100,-8
1773578491.9953678,21.8,29.0,1,-4192,-168,-8
1773578492.0158856,21.8,29.0,1,-4192,-168,-8
1773578492.0361357,21.8,29.0,0,-4132,-128,-8
1773578492.0565405,21.8,29.0,0,-4132,-128,-8
1773578492.076903,21.8,29.0,0,-4132,-128,-8
1773578492.0971828,21.8,29.0,1,-4180,-112,24
1773578492.1176517,21.8,29.0,1,-4180,-112,24
1773578492.1381557,21.8,29.0,1,-4192,-100,-28
1773578492.1587093,21.8,29.0,1,-4192,-100,-28
1773578492.1789956,21.8,29.0,1,-4192,-100,-28
1773578492.1995122,21.8,29.0,1,-4148,-148,-16
1773578492.2201018,21.8,29.0,1,-4148,-148,-16
1773578492.2407966,21.8,29.0,1,-4148,-148,-16
1773578492.2613707,21.8,29.0,0,-4164,-108,-20
1773578492.2820618,21.8,29.0,0,-4164,-108,-20
1773578492.3025796,21.8,29.0,1,-4180,-132,4
1773578492.3232245,21.8,29.0,1,-4180,-132,4
1773578492.3437467,21.8,29.0,1,-4180,-132,4
1773578492.3643527,21.8,29.0,1,-4160,-140,-56
1773578492.3847208,21.8,29.0,1,-4160,-140,-56
1773578492.4052324,21.8,29.0,0,-4188,-108,12
1773578492.4258678,21.8,29.0,0,-4188,-108,12
1773578492.4462326,21.8,29.0,0,-4188,-108,12
1773578492.4665618,21.8,29.0,1,-4168,-152,4
1773578492.4869516,21.8,29.0,1,-4168,-152,4
1773578492.5074732,21.8,29.0,1,-4168,-152,4
1773578492.5277364,21.8,29.0,1,-4180,-92,0
1773578492.5484285,21.8,29.0,1,-4180,-92,0
1773578492.569088,21.8,29.0,1,-4132,-100,-32
1773578492.589626,21.8,29.0,1,-4132,-100,-32
1773578492.6099184,21.8,29.0,1,-4132,-100,-32
1773578492.6306117,21.8,29.0,1,-4160,-152,0
1773578492.6513636,21.8,29.0,1,-4160,-152,0
1773578492.6719108,21.8,29.0,1,-4180,-56,-4
1773578492.6922145,21.8,29.0,1,-4180,-56,-4
1773578492.712701,21.8,29.0,1,-4180,-56,-4
1773578492.7331934,21.8,29.0,1,-4144,-172,-40
1773578492.7538128,21.8,29.0,1,-4144,-172,-40
1773578492.77405,21.8,29.0,1,-4144,-172,-40
1773578492.794591,21.8,29.0,1,-4144,-172,-40
1773578492.8153486,21.8,29.1,1,-4204,-88,-8
1773578492.836424,21.8,29.1,1,-4204,-88,-8
1773578492.857044,21.8,29.1,1,-4188,-112,-20
1773578492.8774605,21.8,29.1,1,-4188,-112,-20
1773578492.8984349,21.8,29.1,1,-4188,-112,-20
1773578492.9192932,21.8,29.1,0,-4132,-20,-172
1773578492.9396555,21.8,29.1,0,-4132,-20,-172
1773578492.9601579,21.8,29.1,0,-4212,-56,4
1773578492.980612,21.8,29.1,0,-4212,-56,4
1773578493.0009968,21.8,29.1,0,-4212,-56,4
1773578493.0215535,21.8,29.1,1,-4176,-72,-8
1773578493.0421753,21.8,29.1,1,-4176,-72,-8
1773578493.062755,21.8,29.1,1,-4176,-72,-8
1773578493.0832086,21.8,29.1,1,-4140,-80,36
1773578493.1037362,21.8,29.1,1,-4140,-80,36
1773578493.124049,21.8,29.1,1,-4204,-112,28
1773578493.1446748,21.8,29.1,1,-4204,-112,28
1773578493.1650074,21.8,29.1,1,-4204,-112,28
1773578493.1857681,21.8,29.1,1,-4184,-100,-4
1773578493.2062924,21.8,29.1,1,-4184,-100,-4
1773578493.2269752,21.8,29.1,1,-4156,-148,-24
1773578493.2475393,21.8,29.1,1,-4156,-148,-24
1773578493.2679212,21.8,29.1,1,-4156,-148,-24
1773578493.2884934,21.8,29.1,1,-4152,-92,-24
1773578493.3090682,21.8,29.1,1,-4152,-92,-24
1773578493.3298256,21.8,29.1,1,-4184,-136,-4
1773578493.3500986,21.8,29.1,1,-4184,-136,-4
1773578493.3705769,21.8,29.1,1,-4184,-136,-4
1773578493.3912122,21.8,29.1,0,-4200,-64,-80
1773578493.4184284,21.8,29.1,0,-4200,-64,-80
1773578493.4392648,21.8,29.1,1,-4216,-128,4
1773578493.4603875,21.8,29.1,1,-4216,-128,4
1773578493.4811506,21.8,29.1,1,-4216,-128,4
1773578493.5018857,21.8,29.1,1,-4196,-84,44
1773578493.5224621,21.8,29.1,1,-4196,-84,44
1773578493.5433302,21.8,29.1,1,-4176,-160,-8
1773578493.564026,21.8,29.1,1,-4176,-160,-8
1773578493.5849435,21.8,29.1,1,-4176,-160,-8
1773578493.6052408,21.8,29.1,1,-4144,-112,-20
1773578493.6255763,21.8,29.1,1,-4144,-112,-20
1773578493.6460514,21.8,29.1,1,-4144,-112,-20
1773578493.6664183,21.8,29.1,1,-4184,-68,0
1773578493.6867213,21.8,29.1,1,-4184,-68,0
1773578493.7073665,21.8,29.1,1,-4192,-128,-16
1773578493.728028,21.8,29.1,1,-4192,-128,-16
1773578493.748489,21.8,29.1,1,-4192,-128,-16
1773578493.769461,21.8,29.1,1,-4160,-72,-28
1773578493.7898548,21.8,29.1,1,-4160,-72,-28
1773578493.8105295,21.8,29.1,1,-4176,-64,-12
1773578493.830796,21.8,29.1,1,-4176,-64,-12
1773578493.851222,21.8,29.1,1,-4176,-64,-12
1773578493.87237,21.8,29.1,1,-4128,-120,-20
1773578493.8932414,21.8,29.1,1,-4128,-120,-20
1773578493.913508,21.8,29.1,1,-4204,-104,0
1773578493.9342587,21.8,29.1,1,-4204,-104,0
1773578493.9546306,21.8,29.1,1,-4204,-104,0
1773578493.9751885,21.8,29.1,1,-4148,-76,20
1773578493.9958074,21.8,29.1,1,-4148,-76,20
1773578494.0165913,21.8,29.1,1,-4148,-76,20
1773578494.036913,21.8,29.1,1,-4172,-92,8
1773578494.05762,21.8,29.1,1,-4172,-92,8
1773578494.0782876,21.8,29.1,1,-4188,-104,0
1773578494.098553,21.8,29.1,1,-4188,-104,0
1773578494.1191492,21.8,29.1,1,-4188,-104,0
1773578494.1395626,21.8,29.1,1,-4144,-128,0
1773578494.1603856,21.8,29.1,1,-4144,-128,0
1773578494.1810722,21.8,29.1,1,-4184,-192,64
1773578494.2012677,21.8,29.1,1,-4184,-192,64
1773578494.2215533,21.8,29.1,1,-4184,-192,64
1773578494.2418091,21.8,29.1,1,-4200,-88,4
1773578494.2627065,21.8,29.1,1,-4200,-88,4
1773578494.2832317,21.8,29.1,1,-4180,-80,-28
1773578494.3035219,21.8,29.1,1,-4180,-80,-28
1773578494.3242655,21.8,29.1,1,-4180,-80,-28
1773578494.3446171,21.8,29.1,1,-4112,-160,-8
1773578494.3651056,21.8,29.1,1,-4112,-160,-8
1773578494.385275,21.8,29.1,1,-4112,-160,-8
1773578494.40579,21.8,29.1,0,-4196,-160,24
1773578494.4263086,21.8,29.1,0,-4196,-160,24
1773578494.4472206,21.8,29.1,1,-4196,-124,-44
1773578494.4678197,21.8,29.1,1,-4196,-124,-44
1773578494.488547,21.8,29.1,1,-4196,-124,-44
1773578494.5091558,21.8,29.1,0,-4144,-148,-4
1773578494.5297315,21.8,29.1,0,-4144,-148,-4
1773578494.5502756,21.8,29.1,1,-4176,-144,16
1773578494.570592,21.8,29.1,1,-4176,-144,16
1773578494.5909889,21.8,29.1,1,-4176,-144,16
1773578494.611425,21.8,29.1,1,-4200,8,16
1773578494.6316657,21.8,29.1,1,-4200,8,16
1773578494.6523757,21.8,29.1,1,-4200,8,16
1773578494.6727428,21.8,29.1,1,-4168,-148,-20
1773578494.693107,21.8,29.1,1,-4168,-148,-20
1773578494.7135732,21.8,29.1,1,-4156,-4,20
1773578494.7341866,21.8,29.1,1,-4156,-4,20
1773578494.7548828,21.8,29.1,1,-4156,-4,20
1773578494.775429,21.8,29.1,1,-4172,-160,24
1773578494.7959988,21.8,29.1,1,-4172,-160,24
1773578494.8166327,21.8,29.1,1,-4172,-160,24
1773578494.837395,21.8,29.1,1,-4172,-160,24
1773578494.8578863,21.8,29.1,0,-4176,-128,0
1773578494.8784838,21.8,29.1,0,-4176,-128,0
1773578494.8988626,21.8,29.1,1,-4200,-108,-12
1773578494.9196866,21.8,29.1,1,-4200,-108,-12
1773578494.9401805,21.8,29.1,1,-4200,-108,-12
1773578494.9608438,21.8,29.1,1,-4176,-136,-4
1773578494.9814353,21.8,29.1,1,-4176,-136,-4
1773578495.0018895,21.8,29.1,1,-4168,-76,24
1773578495.022142,21.8,29.1,1,-4168,-76,24
1773578495.042871,21.8,29.1,1,-4168,-76,24
1773578495.0630229,21.8,29.1,1,-4156,-124,16
1773578495.0833752,21.8,29.1,1,-4156,-124,16
1773578495.1038358,21.8,29.1,1,-4152,-76,-68
1773578495.124202,21.8,29.1,1,-4152,-76,-68
1773578495.1444662,21.8,29.1,1,-4152,-76,-68
1773578495.1650913,21.8,29.1,1,-4188,-140,0
1773578495.185457,21.8,29.1,1,-4188,-140,0
1773578495.2059023,21.8,29.1,1,-4188,-140,0
1773578495.226849,21.8,29.1,1,-4168,-156,44
1773578495.247263,21.8,29.1,1,-4168,-156,44
1773578495.26754,21.8,29.1,1,-4120,-160,-16
1773578495.2879307,21.8,29.1,1,-4120,-160,-16
1773578495.3086483,21.8,29.1,1,-4120,-160,-16
1773578495.329105,21.8,29.1,1,-4160,-232,44
1773578495.349386,21.8,29.1,1,-4160,-232,44
1773578495.3702188,21.8,29.1,1,-4144,-20,24
1773578495.39045,21.8,29.1,1,-4144,-20,24
1773578495.4113057,21.8,29.1,1,-4144,-20,24
1773578495.4318159,21.8,29.1,1,-4160,-136,4
1773578495.452504,21.8,29.1,1,-4160,-136,4
1773578495.472752,21.8,29.1,1,-4160,-136,4
1773578495.4933126,21.8,29.1,1,-4184,-136,-28
1773578495.5146072,21.8,29.1,1,-4184,-136,-28
1773578495.5352497,21.8,29.1,0,-4156,-156,12
1773578495.5555081,21.8,29.1,0,-4156,-156,12
1773578495.576046,21.8,29.1,0,-4156,-156,12
1773578495.596408,21.8,29.1,1,-4212,-148,4
1773578495.6169457,21.8,29.1,1,-4212,-148,4
1773578495.6374702,21.8,29.1,0,-4180,-92,28
1773578495.6580229,21.8,29.1,0,-4180,-92,28
1773578495.6786253,21.8,29.1,0,-4180,-92,28
1773578495.6994326,21.8,29.1,0,-4156,-128,-8
1773578495.7198453,21.8,29.1,0,-4156,-128,-8
1773578495.7406576,21.8,29.1,0,-4172,-108,28
1773578495.7615373,21.8,29.1,0,-4172,-108,28
1773578495.781991,21.8,29.1,0,-4172,-108,28
1773578495.8026316,21.8,29.1,1,-4180,-120,20
1773578495.8229597,21.8,29.1,1,-4180,-120,20
1773578495.843481,21.8,29.1,1,-4180,-120,20
1773578495.8640182,21.8,29.1,1,-4196,-124,-68
1773578495.884464,21.8,29.1,1,-4196,-124,-68
1773578495.904954,21.8,29.1,1,-4168,-112,0
1773578495.9257216,21.8,29.1,1,-4168,-112,0
1773578495.946097,21.8,29.1,1,-4168,-112,0
1773578495.9671996,21.8,29.1,1,-4192,-100,36
1773578495.9875402,21.8,29.1,1,-4192,-100,36
1773578496.0081413,21.8,29.1,0,-4168,-112,-16
1773578496.0287685,21.8,29.1,0,-4168,-112,-16
1773578496.049374,21.8,29.1,0,-4168,-112,-16
1773578496.0699213,21.8,29.1,1,-4132,-88,-4
1773578496.090581,21.8,29.1,1,-4132,-88,-4
1773578496.110995,21.8,29.1,1,-4132,-88,-4
1773578496.131535,21.8,29.1,1,-4176,-60,24
1773578496.152077,21.8,29.1,1,-4176,-60,24
1773578496.1726923,21.8,29.1,1,-4184,-112,-16
1773578496.1932788,21.8,29.1,1,-4184,-112,-16
1773578496.2136776,21.8,29.1,1,-4184,-112,-16
1773578496.2355418,21.8,29.1,1,-4184,-76,16
1773578496.256509,21.8,29.1,1,-4184,-76,16
1773578496.2771554,21.8,29.1,0,-4184,-108,-28
1773578496.2979205,21.8,29.1,0,-4184,-108,-28
1773578496.318552,21.8,29.1,0,-4184,-108,-28
1773578496.3392248,21.8,29.1,1,-4184,-8,-68
1773578496.3596177,21.8,29.1,1,-4184,-8,-68
1773578496.38,21.8,29.1,1,-4184,-160,12
1773578496.4005349,21.8,29.1,1,-4184,-160,12
1773578496.4213157,21.8,29.1,1,-4184,-160,12
1773578496.4419737,21.8,29.1,1,-4180,-68,-8
1773578496.4626274,21.8,29.1,1,-4180,-68,-8
1773578496.4832544,21.8,29.1,1,-4192,-124,32
1773578496.5037873,21.8,29.1,1,-4192,-124,32
1773578496.52454,21.8,29.1,1,-4192,-124,32
1773578496.54493,21.8,29.1,0,-4184,-80,0
1773578496.5653074,21.8,29.1,0,-4184,-80,0
1773578496.5863726,21.8,29.1,0,-4184,-80,0
1773578496.6070702,21.8,29.1,1,-4176,-108,0
1773578496.6273434,21.8,29.1,1,-4176,-108,0
1773578496.6479797,21.8,29.1,1,-4144,-84,4
1773578496.6686306,21.8,29.1,1,-4144,-84,4
1773578496.689087,21.8,29.1,1,-4144,-84,4
1773578496.7095397,21.8,29.1,1,-4180,-84,-8
1773578496.7301893,21.8,29.1,1,-4180,-84,-8
1773578496.7508266,21.8,29.1,0,-4184,-128,-12
1773578496.771275,21.8,29.1,0,-4184,-128,-12
1773578496.7917674,21.8,29.1,0,-4184,-128,-12
1773578496.814062,21.8,29.1,1,-4160,-104,44
1773578496.8354797,21.8,29.1,1,-4160,-104,44
1773578496.8559422,21.8,29.1,1,-4160,-104,44
1773578496.8767686,21.8,29.1,1,-4160,-104,44
1773578496.897194,21.8,29.1,1,-4148,-156,-44
1773578496.9183414,21.8,29.1,1,-4148,-156,-44
1773578496.9390526,21.8,29.1,1,-4164,-112,12
1773578496.9599693,21.8,29.1,1,-4164,-112,12
1773578496.9806519,21.8,29.1,1,-4164,-112,12
1773578497.0018535,21.8,29.1,0,-4184,-92,0
1773578497.0222585,21.8,29.1,0,-4184,-92,0
1773578497.0425696,21.8,29.1,1,-4168,-120,-16
1773578497.0628495,21.8,29.1,1,-4168,-120,-16
1773578497.0833147,21.8,29.1,1,-4168,-120,-16
1773578497.1037672,21.8,29.1,1,-4160,-144,-4
1773578497.1243124,21.8,29.1,1,-4160,-144,-4
1773578497.144876,21.8,29.1,0,-4192,-80,4
1773578497.1652708,21.8,29.1,0,-4192,-80,4
1773578497.185859,21.8,29.1,0,-4192,-80,4
1773578497.206386,21.8,29.1,1,-4184,-52,16
1773578497.2296975,21.8,29.1,1,-4184,-52,16
1773578497.2502058,21.8,29.1,1,-4172,-232,24
1773578497.2705286,21.8,29.1,1,-4172,-232,24
1773578497.2911274,21.8,29.1,1,-4172,-232,24
1773578497.3115866,21.8,29.1,0,-4124,-124,32
1773578497.3321345,21.8,29.1,0,-4124,-124,32
1773578497.3526134,21.8,29.1,0,-4124,-124,32
1773578497.3732402,21.8,29.1,1,-4124,-116,-8
1773578497.3937738,21.8,29.1,1,-4124,-116,-8
1773578497.4143462,21.8,29.1,0,-4184,-148,-16
1773578497.435024,21.8,29.1,0,-4184,-148,-16
1773578497.4553168,21.8,29.1,0,-4184,-148,-16
1773578497.476417,21.8,29.1,0,-4160,-156,-8
1773578497.4968204,21.8,29.1,0,-4160,-156,-8
1773578497.5174205,21.8,29.1,1,-4184,-80,-8
1773578497.5382771,21.8,29.1,1,-4184,-80,-8
1773578497.5588338,21.8,29.1,1,-4184,-80,-8
1773578497.579426,21.8,29.1,1,-4180,-52,-8
1773578497.5997314,21.8,29.1,1,-4180,-52,-8
1773578497.620117,21.8,29.1,1,-4180,-52,-8
1773578497.640731,21.8,29.1,0,-4192,-136,-12
1773578497.6614783,21.8,29.1,0,-4192,-136,-12
1773578497.6823385,21.8,29.1,1,-4204,-128,-4
1773578497.7030592,21.8,29.1,1,-4204,-128,-4
1773578497.7234719,21.8,29.1,1,-4204,-128,-4
1773578497.7442179,21.8,29.1,0,-4176,-128,-12
1773578497.764961,21.8,29.1,0,-4176,-128,-12
1773578497.7860758,21.8,29.1,1,-4144,-176,-52
1773578497.806298,21.8,29.1,1,-4144,-176,-52
1773578497.82697,21.8,29.1,1,-4144,-176,-52
1773578497.8474078,21.8,29.1,0,-4188,-40,-4
1773578497.868466,21.8,29.1,0,-4188,-40,-4
1773578497.888729,21.8,29.1,1,-4192,-128,-4
1773578497.9090004,21.8,29.1,1,-4192,-128,-4
1773578497.9295757,21.8,29.1,1,-4192,-128,-4
1773578497.9500191,21.8,29.1,0,-4180,-160,-16
1773578497.970816,21.8,29.1,0,-4180,-160,-16
1773578497.9911225,21.8,29.1,0,-4180,-160,-16
1773578498.0114498,21.8,29.1,1,-4156,-184,32
1773578498.0321364,21.8,29.1,1,-4156,-184,32
1773578498.052758,21.8,29.1,1,-4180,-104,-16
1773578498.073062,21.8,29.1,1,-4180,-104,-16
1773578498.0937572,21.8,29.1,1,-4180,-104,-16
1773578498.1141639,21.8,29.1,1,-4164,-128,0
1773578498.135152,21.8,29.1,1,-4164,-128,0
1773578498.1554096,21.8,29.1,1,-4152,-80,-28
1773578498.1758204,21.8,29.1,1,-4152,-80,-28
1773578498.1964087,21.8,29.1,1,-4152,-80,-28
1773578498.2172956,21.8,29.1,0,-4196,-76,32
1773578498.2382603,21.8,29.1,0,-4196,-76,32
1773578498.2587636,21.8,29.1,0,-4132,-212,0
1773578498.279078,21.8,29.1,0,-4132,-212,0
1773578498.299577,21.8,29.1,0,-4132,-212,0
1773578498.319726,21.8,29.1,1,-4180,-56,36
1773578498.3399835,21.8,29.1,1,-4180,-56,36
1773578498.3604078,21.8,29.1,1,-4180,-56,36
1773578498.3809524,21.8,29.1,1,-4180,-92,4
1773578498.402184,21.8,29.1,1,-4180,-92,4
1773578498.422816,21.8,29.1,1,-4192,-100,60
1773578498.4434335,21.8,29.1,1,-4192,-100,60
1773578498.4647346,21.8,29.1,1,-4192,-100,60
1773578498.4851165,21.8,29.1,0,-4172,-96,-16
1773578498.5054917,21.8,29.1,0,-4172,-96,-16
1773578498.5258415,21.8,29.1,1,-4168,-136,-44
1773578498.546248,21.8,29.1,1,-4168,-136,-44
1773578498.5668015,21.8,29.1,1,-4168,-136,-44
1773578498.5874553,21.8,29.1,1,-4176,-156,12
1773578498.6086326,21.8,29.1,1,-4176,-156,12
1773578498.6289403,21.8,29.1,0,-4176,-88,-12
1773578498.6493187,21.8,29.1,0,-4176,-88,-12
1773578498.6696646,21.8,29.1,0,-4176,-88,-12
1773578498.6899161,21.8,29.1,1,-4176,-120,-24
1773578498.7102168,21.8,29.1,1,-4176,-120,-24
1773578498.7307887,21.8,29.1,1,-4176,-120,-24
1773578498.7531588,21.8,29.1,1,-4192,-48,-4
1773578498.7735353,21.8,29.1,1,-4192,-48,-4
1773578498.7942789,21.8,29.1,1,-4188,-144,4
1773578498.8147132,21.8,29.1,1,-4188,-144,4
1773578498.835251,21.8,29.1,1,-4188,-144,4
1773578498.8560295,21.8,29.1,1,-4140,-100,-28
1773578498.87654,21.8,29.1,1,-4140,-100,-28
1773578498.896915,21.8,29.1,1,-4140,-100,-28
1773578498.9173915,21.8,29.1,1,-4140,-100,-28
1773578498.9379997,21.7,29.1,1,-4204,-8,44
1773578498.9583695,21.7,29.1,1,-4204,-8,44
1773578498.9788423,21.7,29.1,1,-4184,-140,-8
1773578498.9990351,21.7,29.1,1,-4184,-140,-8
1773578499.01975,21.7,29.1,1,-4184,-140,-8
1773578499.0400903,21.7,29.1,0,-4196,-92,12
1773578499.0606542,21.7,29.1,0,-4196,-92,12
1773578499.0809119,21.7,29.1,1,-4164,-136,24
1773578499.1013813,21.7,29.1,1,-4164,-136,24
1773578499.1219878,21.7,29.1,1,-4164,-136,24
1773578499.1422703,21.7,29.1,0,-4164,-160,-32
1773578499.1627903,21.7,29.1,0,-4164,-160,-32
1773578499.1832712,21.7,29.1,0,-4164,-160,-32
1773578499.2036464,21.7,29.1,1,-4172,-52,20
1773578499.2241647,21.7,29.1,1,-4172,-52,20
1773578499.2447531,21.7,29.1,0,-4196,-140,24
1773578499.2649846,21.7,29.1,0,-4196,-140,24
1773578499.2851741,21.7,29.1,0,-4196,-140,24
1773578499.306064,21.7,29.1,1,-4132,-160,52
1773578499.3264391,21.7,29.1,1,-4132,-160,52
1773578499.3467183,21.7,29.1,1,-4148,-108,0
1773578499.367371,21.7,29.1,1,-4148,-108,0
1773578499.3877823,21.7,29.1,1,-4148,-108,0
1773578499.4082937,21.7,29.1,1,-4176,-164,-44
1773578499.429108,21.7,29.1,1,-4176,-164,-44
1773578499.4498703,21.7,29.1,1,-4148,-104,64
1773578499.4705102,21.7,29.1,1,-4148,-104,64
1773578499.491285,21.7,29.1,1,-4148,-104,64
1773578499.511596,21.7,29.1,1,-4168,-136,-16
1773578499.5319252,21.7,29.1,1,-4168,-136,-16
1773578499.5522819,21.7,29.1,1,-4168,-136,-16
1773578499.572932,21.7,29.1,0,-4200,-88,-12
1773578499.5931628,21.7,29.1,0,-4200,-88,-12
1773578499.6134198,21.7,29.1,0,-4184,-104,24
1773578499.6337981,21.7,29.1,0,-4184,-104,24
1773578499.6544697,21.7,29.1,0,-4184,-104,24
1773578499.675079,21.7,29.1,1,-4168,-144,-4
1773578499.696191,21.7,29.1,1,-4168,-144,-4
1773578499.7166803,21.7,29.1,1,-4176,-64,8
1773578499.7379076,21.7,29.1,1,-4176,-64,8
1773578499.7583575,21.7,29.1,1,-4176,-64,8
1773578499.7789683,21.7,29.1,1,-4196,-116,36
1773578499.7992768,21.7,29.1,1,-4196,-116,36
1773578499.8197222,21.7,29.1,1,-4196,-116,36
1773578499.8402615,21.7,29.1,0,-4168,-112,20
1773578499.8611097,21.7,29.1,0,-4168,-112,20
1773578499.8815546,21.7,29.1,1,-4156,-112,-4
1773578499.9024432,21.7,29.1,1,-4156,-112,-4
1773578499.9230623,21.7,29.1,1,-4156,-112,-4
1773578499.943542,21.7,29.1,1,-4188,-120,0
1773578499.9639328,21.7,29.1,1,-4188,-120,0
1773578499.9844947,21.7,29.1,0,-4176,-128,4
1773578500.004839,21.7,29.1,0,-4176,-128,4
1773578500.0253134,21.7,29.1,0,-4176,-128,4
1773578500.045722,21.7,29.1,1,-4152,-124,-8
1773578500.0671263,21.7,29.1,1,-4152,-124,-8
1773578500.0874329,21.7,29.1,0,-4168,-116,0
1773578500.1078575,21.7,29.1,0,-4168,-116,0
1773578500.1285422,21.7,29.1,0,-4168,-116,0
1773578500.1490996,21.7,29.1,0,-4184,-96,-4
1773578500.1699688,21.7,29.1,0,-4184,-96,-4
1773578500.1902843,21.7,29.1,0,-4184,-96,-4
1773578500.2108486,21.7,29.1,1,-4160,-100,-20
1773578500.2311604,21.7,29.1,1,-4160,-100,-20
1773578500.2519078,21.7,29.1,1,-4164,-116,-8
1773578500.2726438,21.7,29.1,1,-4164,-116,-8
1773578500.293392,21.7,29.1,1,-4164,-116,-8
1773578500.3139575,21.7,29.1,1,-4188,-96,24
1773578500.3343132,21.7,29.1,1,-4188,-96,24
1773578500.3545563,21.7,29.1,0,-4152,-136,-8
1773578500.3749273,21.7,29.1,0,-4152,-136,-8
1773578500.3956668,21.7,29.1,0,-4152,-136,-8
1773578500.4164228,21.7,29.1,0,-4148,-104,0
1773578500.4369256,21.7,29.1,0,-4148,-104,0
1773578500.4570615,21.7,29.1,0,-4148,-104,0
1773578500.4779956,21.7,29.1,1,-4168,-120,12
1773578500.4985466,21.7,29.1,1,-4168,-120,12
1773578500.518804,21.7,29.1,1,-4204,-124,16
1773578500.5391943,21.7,29.1,1,-4204,-124,16
1773578500.559988,21.7,29.1,1,-4204,-124,16
1773578500.5813992,21.7,29.1,1,-4168,-120,-8
1773578500.6027207,21.7,29.1,1,-4168,-120,-8
1773578500.623326,21.7,29.1,1,-4160,-132,24
1773578500.6438832,21.7,29.1,1,-4160,-132,24
1773578500.6643102,21.7,29.1,1,-4160,-132,24
1773578500.6846473,21.7,29.1,1,-4212,-76,12
1773578500.7052963,21.7,29.1,1,-4212,-76,12
1773578500.7258468,21.7,29.1,1,-4180,-120,-20
1773578500.7462275,21.7,29.1,1,-4180,-120,-20
1773578500.7666054,21.7,29.1,1,-4180,-120,-20
1773578500.787363,21.7,29.1,0,-4168,-108,12
1773578500.8079069,21.7,29.1,0,-4168,-108,12
1773578500.8282065,21.7,29.1,0,-4168,-108,12
1773578500.84851,21.7,29.1,1,-4196,-140,36
1773578500.8695438,21.7,29.1,1,-4196,-140,36
1773578500.8898528,21.7,29.1,0,-4180,-132,-40
1773578500.9103358,21.7,29.1,0,-4180,-132,-40
1773578500.9308941,21.7,29.1,0,-4180,-132,-40
1773578500.9512691,21.7,29.1,0,-4180,-132,-40
1773578500.971885,21.7,29.1,1,-4188,-100,20
1773578500.9922223,21.7,29.1,1,-4188,-100,20
1773578501.0126107,21.7,29.1,1,-4188,-100,20
1773578501.0331326,21.7,29.1,0,-4152,-132,0
1773578501.053618,21.7,29.1,0,-4152,-132,0
1773578501.0742497,21.7,29.1,1,-4140,-112,-8
1773578501.0948238,21.7,29.1,1,-4140,-112,-8
1773578501.1151392,21.7,29.1,1,-4140,-112,-8
1773578501.1356466,21.7,29.1,1,-4176,-112,8
1773578501.1561885,21.7,29.1,1,-4176,-112,8
1773578501.1768074,21.7,29.1,1,-4176,-112,8
1773578501.1973584,21.7,29.1,1,-4176,-112,8
1773578501.2178004,21.7,29.1,1,-4176,-112,8
1773578501.2384114,21.7,29.1,0,-4148,-120,-12
1773578501.2592301,21.7,29.1,0,-4148,-120,-12
1773578501.2797656,21.7,29.1,1,-4156,-100,12
1773578501.3001215,21.7,29.1,1,-4156,-100,12
1773578501.3203182,21.7,29.1,1,-4156,-100,12
1773578501.3407636,21.7,29.1,1,-4200,-112,8
1773578501.361684,21.7,29.1,1,-4200,-112,8
1773578501.3819149,21.7,29.1,1,-4200,-112,8
1773578501.402577,21.7,29.1,1,-4152,-92,-8
1773578501.4233637,21.7,29.1,1,-4152,-92,-8
1773578501.443675,21.7,29.1,1,-4172,-104,-16
1773578501.4640794,21.7,29.1,1,-4172,-104,-16
1773578501.4844549,21.7,29.1,1,-4172,-104,-16
1773578501.505153,21.7,29.1,1,-4168,-124,24
1773578501.5255885,21.7,29.1,1,-4168,-124,24
1773578501.5461433,21.7,29.1,1,-4204,-116,-44
1773578501.5668323,21.7,29.1,1,-4204,-116,-44
1773578501.5873694,21.7,29.1,1,-4204,-116,-44
1773578501.6080582,21.7,29.1,1,-4168,-104,-8
1773578501.6282666,21.7,29.1,1,-4168,-104,-8
1773578501.6488352,21.7,29.1,1,-4168,-104,-8
1773578501.6696844,21.7,29.1,1,-4184,-116,16
1773578501.69046,21.7,29.1,1,-4184,-116,16
1773578501.7109754,21.7,29.1,0,-4180,-84,-12
1773578501.7313676,21.7,29.1,0,-4180,-84,-12
1773578501.752054,21.7,29.1,0,-4180,-84,-12
1773578501.773085,21.7,29.1,1,-4164,-136,-16
1773578501.7934003,21.7,29.1,1,-4164,-136,-16
1773578501.8142848,21.7,29.1,1,-4148,-108,-4
1773578501.8346286,21.7,29.1,1,-4148,-108,-4
1773578501.8555553,21.7,29.1,1,-4148,-108,-4
1773578501.8763072,21.7,29.1,0,-4188,-112,12
1773578501.8969367,21.7,29.1,0,-4188,-112,12
1773578501.9177585,21.7,29.1,1,-4176,-104,0
1773578501.9385436,21.7,29.1,1,-4176,-104,0
1773578501.9590008,21.7,29.1,1,-4176,-104,0
1773578501.979439,21.7,29.1,1,-4156,-104,28
1773578501.9998808,21.7,29.1,1,-4156,-104,28
1773578502.020611,21.7,29.1,1,-4156,-104,28
1773578502.040894,21.7,29.1,1,-4196,-116,4
1773578502.061374,21.7,29.1,1,-4196,-116,4
1773578502.0822618,21.7,29.1,0,-4200,-80,-8
1773578502.1028357,21.7,29.1,0,-4200,-80,-8
1773578502.1233144,21.7,29.1,0,-4200,-80,-8
1773578502.1435406,21.7,29.1,1,-4176,-116,-4
1773578502.1643307,21.7,29.1,1,-4176,-116,-4
1773578502.1865032,21.7,29.1,0,-4156,-100,36
1773578502.2071726,21.7,29.1,0,-4156,-100,36
1773578502.2276704,21.7,29.1,0,-4156,-100,36
1773578502.248059,21.7,29.1,1,-4176,-144,0
1773578502.2689033,21.7,29.1,1,-4176,-144,0
1773578502.2892292,21.7,29.1,1,-4140,-112,-8
1773578502.3098934,21.7,29.1,1,-4140,-112,-8
1773578502.3306708,21.7,29.1,1,-4140,-112,-8
1773578502.3508322,21.7,29.1,1,-4176,-124,8
1773578502.3713021,21.7,29.1,1,-4176,-124,8
1773578502.3918314,21.7,29.1,1,-4176,-124,8
1773578502.4145231,21.7,29.1,0,-4184,-108,56
1773578502.4358382,21.7,29.1,0,-4184,-108,56
1773578502.4564435,21.7,29.1,1,-4176,-116,-16
1773578502.4770594,21.7,29.1,1,-4176,-116,-16
1773578502.497806,21.7,29.1,1,-4176,-116,-16
1773578502.5187647,21.7,29.1,1,-4160,-132,24
1773578502.5396245,21.7,29.1,1,-4160,-132,24
1773578502.5600092,21.7,29.1,1,-4192,-112,36
1773578502.5803463,21.7,29.1,1,-4192,-112,36
1773578502.6010067,21.7,29.1,1,-4192,-112,36
1773578502.6212504,21.7,29.1,1,-4180,-104,-8
1773578502.6417632,21.7,29.1,1,-4180,-104,-8
1773578502.6625006,21.7,29.1,1,-4172,-112,0
1773578502.6828644,21.7,29.1,1,-4172,-112,0
1773578502.7032783,21.7,29.1,1,-4172,-112,0
1773578502.7240403,21.7,29.1,1,-4156,-120,-4
1773578502.7447402,21.7,29.1,1,-4156,-120,-4
1773578502.7653277,21.7,29.1,1,-4168,-112,4
1773578502.785901,21.7,29.1,1,-4168,-112,4
1773578502.8065405,21.7,29.1,1,-4168,-112,4
1773578502.8268712,21.7,29.1,1,-4176,-100,-4
1773578502.847495,21.7,29.1,1,-4176,-100,-4
1773578502.8686216,21.7,29.1,1,-4176,-100,-4
1773578502.8892758,21.7,29.1,1,-4164,-116,8
1773578502.909631,21.7,29.1,1,-4164,-116,8
1773578502.9300492,21.7,29.1,0,-4212,-116,12
1773578502.9508731,21.7,29.1,0,-4212,-116,12
1773578502.9721663,21.7,29.1,0,-4212,-116,12
1773578502.992648,21.7,29.1,0,-4212,-116,12
1773578503.0143368,21.7,29.1,1,-4168,-120,4
1773578503.0355883,21.7,29.1,1,-4168,-120,4
1773578503.0560796,21.7,29.1,0,-4172,-112,-4
1773578503.0763915,21.7,29.1,0,-4172,-112,-4
1773578503.0970333,21.7,29.1,0,-4172,-112,-4
1773578503.117506,21.7,29.1,1,-4168,-100,4
1773578503.1383326,21.7,29.1,1,-4168,-100,4
1773578503.1586905,21.7,29.1,1,-4168,-100,4
1773578503.179167,21.7,29.1,0,-4168,-148,28
1773578503.199467,21.7,29.1,0,-4168,-148,28
1773578503.2202468,21.7,29.1,1,-4200,-100,32
1773578503.2406244,21.7,29.1,1,-4200,-100,32
1773578503.261113,21.7,29.1,1,-4200,-100,32
1773578503.2812238,21.7,29.1,0,-4180,-120,-8
1773578503.302824,21.7,29.1,0,-4180,-120,-8
1773578503.3233929,21.7,29.1,1,-4180,-124,-8
1773578503.3440819,21.7,29.1,1,-4180,-124,-8
1773578503.3643155,21.7,29.1,1,-4180,-124,-8
1773578503.3846767,21.7,29.1,1,-4172,-124,24
1773578503.4052281,21.7,29.1,1,-4172,-124,24
1773578503.4255269,21.7,29.1,1,-4172,-84,12
1773578503.4461167,21.7,29.1,1,-4172,-84,12
1773578503.466432,21.7,29.1,1,-4172,-84,12
1773578503.486672,21.7,29.1,1,-4148,-112,-24
1773578503.507394,21.7,29.1,1,-4148,-112,-24
1773578503.5277612,21.7,29.1,1,-4148,-112,-24
1773578503.5490258,21.7,29.1,0,-4180,-112,8
1773578503.569662,21.7,29.1,0,-4180,-112,8
1773578503.5903513,21.7,29.1,1,-4184,-116,20
1773578503.6108224,21.7,29.1,1,-4184,-116,20
1773578503.6313412,21.7,29.1,1,-4184,-116,20
1773578503.6515276,21.7,29.1,1,-4172,-120,-20
1773578503.671899,21.7,29.1,1,-4172,-120,-20
1773578503.692508,21.7,29.1,0,-4156,-116,-4
1773578503.712955,21.7,29.1,0,-4156,-116,-4
1773578503.7333603,21.7,29.1,0,-4156,-116,-4
1773578503.7540853,21.7,29.1,1,-4192,-124,36
1773578503.7745535,21.7,29.1,1,-4192,-124,36
1773578503.7949538,21.7,29.1,1,-4192,-124,36
1773578503.8154826,21.7,29.1,1,-4172,-128,4
1773578503.8361692,21.7,29.1,1,-4172,-128,4
1773578503.8565824,21.7,29.1,1,-4144,-132,16
1773578503.8772178,21.7,29.1,1,-4144,-132,16
1773578503.8977106,21.7,29.1,1,-4144,-132,16
1773578503.9192574,21.7,29.1,1,-4188,-124,36
1773578503.9398441,21.7,29.1,1,-4188,-124,36
1773578503.9602373,21.7,29.1,0,-4180,-84,-4
1773578503.9804177,21.7,29.1,0,-4180,-84,-4
1773578504.0010116,21.7,29.1,0,-4180,-84,-4
1773578504.0215738,21.7,29.1,1,-4152,-124,-16
1773578504.0420709,21.7,29.1,1,-4152,-124,-16
1773578504.0627623,21.7,29.1,1,-4188,-112,16
1773578504.0832074,21.7,29.1,1,-4188,-112,16
1773578504.1038446,21.7,29.1,1,-4188,-112,16
1773578504.1243668,21.7,29.1,1,-4192,-108,20
1773578504.1447346,21.7,29.1,1,-4192,-108,20
1773578504.1651568,21.7,29.1,1,-4192,-108,20
1773578504.1855214,21.7,29.1,1,-4180,-120,-24
1773578504.205955,21.7,29.1,1,-4180,-120,-24
1773578504.2263727,21.7,29.1,1,-4176,-100,12
1773578504.2465575,21.7,29.1,1,-4176,-100,12
1773578504.2671485,21.7,29.1,1,-4176,-100,12
1773578504.2877877,21.7,29.1,1,-4164,-104,20
1773578504.3079875,21.7,29.1,1,-4164,-104,20
1773578504.328365,21.7,29.1,1,-4176,-112,-4
1773578504.3487515,21.7,29.1,1,-4176,-112,-4
1773578504.3691626,21.7,29.1,1,-4176,-112,-4
1773578504.3899229,21.7,29.1,1,-4176,-112,0
1773578504.4106169,21.7,29.1,1,-4176,-112,0
1773578504.4311936,21.7,29.1,1,-4176,-112,0
1773578504.4524677,21.7,29.1,1,-4164,-132,12
1773578504.4733336,21.7,29.1,1,-4164,-132,12
1773578504.4937134,21.7,29.1,1,-4192,-116,4
1773578504.5142722,21.7,29.1,1,-4192,-116,4
1773578504.5355353,21.7,29.1,1,-4192,-116,4
1773578504.555774,21.7,29.1,1,-4144,-112,0
1773578504.5762815,21.7,29.1,1,-4144,-112,0
1773578504.596644,21.7,29.1,0,-4168,-108,-4
1773578504.6174853,21.7,29.1,0,-4168,-108,-4
1773578504.6378536,21.7,29.1,0,-4168,-108,-4
1773578504.6585314,21.7,29.1,1,-4192,-112,36
1773578504.6790981,21.7,29.1,1,-4192,-112,36
1773578504.6993756,21.7,29.1,0,-4152,-116,-20
1773578504.7200396,21.7,29.1,0,-4152,-116,-20
1773578504.7405093,21.7,29.1,0,-4152,-116,-20
1773578504.7609608,21.7,29.1,1,-4152,-148,12
1773578504.7814322,21.7,29.1,1,-4152,-148,12
