timestamp,temp,hum,mic,ax,ay,az
1773579080.117462,21.4,30.7,0,-4212,104,144
1773579080.1381874,21.4,30.7,0,-4212,104,144
1773579080.1585371,21.4,30.7,0,-4180,112,144
1773579080.1790853,21.4,30.7,0,-4180,112,144
1773579080.2002063,21.4,30.7,0,-4148,108,96
1773579080.2210276,21.4,30.7,0,-4148,108,96
1773579080.241733,21.4,30.7,0,-4148,108,96
1773579080.2623348,21.4,30.7,0,-4176,92,120
1773579080.2828248,21.4,30.7,0,-4176,92,120
1773579080.3034182,21.4,30.7,0,-4208,112,196
1773579080.323734,21.4,30.7,0,-4208,112,196
1773579080.344134,21.4,30.7,0,-4208,112,196
1773579080.3647325,21.4,30.7,0,-4172,132,132
1773579080.3867118,21.4,30.7,0,-4172,132,132
1773579080.4074574,21.4,30.7,0,-4172,132,132
1773579080.4279099,21.4,30.7,0,-4168,168,100
1773579080.448673,21.4,30.7,0,-4168,168,100
1773579080.47123,21.4,30.7,0,-4188,100,128
1773579080.4915018,21.4,30.7,0,-4188,100,128
1773579080.5122538,21.4,30.7,0,-4188,100,128
1773579080.5329616,21.4,30.7,0,-4176,100,152
1773579080.5534756,21.4,30.7,0,-4176,100,152
1773579080.573973,21.4,30.7,0,-4188,156,128
1773579080.5945044,21.4,30.7,0,-4188,156,128
1773579080.6150587,21.4,30.7,0,-4188,156,128
1773579080.636082,21.4,30.7,0,-4200,132,96
1773579080.6564293,21.4,30.7,0,-4200,132,96
1773579080.6770456,21.4,30.7,0,-4212,144,132
1773579080.697453,21.4,30.7,0,-4212,144,132
1773579080.7180572,21.4,30.7,0,-4212,144,132
1773579080.7385373,21.4,30.7,0,-4140,92,120
1773579080.7597382,21.4,30.7,0,-4140,92,120
1773579080.7801754,21.4,30.7,0,-4172,224,148
1773579080.8030863,21.4,30.7,0,-4172,224,148
1773579080.8238423,21.4,30.7,0,-4172,224,148
1773579080.8443136,21.4,30.7,0,-4196,136,180
1773579080.8651597,21.4,30.7,0,-4196,136,180
1773579080.8867726,21.4,30.7,0,-4196,140,88
1773579080.9074197,21.4,30.7,0,-4196,140,88
1773579080.9286833,21.4,30.7,0,-4196,140,88
1773579080.9492807,21.4,30.7,0,-4164,192,124
1773579080.971249,21.4,30.7,0,-4164,192,124
1773579080.9919417,21.4,30.7,0,-4164,192,124
1773579081.0128653,21.4,30.7,0,-4180,120,140
1773579081.0336957,21.4,30.7,0,-4180,120,140
1773579081.05434,21.4,30.7,0,-4192,112,120
1773579081.074848,21.4,30.7,0,-4192,112,120
1773579081.0952742,21.4,30.7,0,-4192,112,120
1773579081.115794,21.4,30.7,0,-4156,180,96
1773579081.1362934,21.4,30.7,0,-4156,180,96
1773579081.1571283,21.4,30.7,0,-4172,128,160
1773579081.1774702,21.4,30.7,0,-4172,128,160
1773579081.1982975,21.4,30.7,0,-4172,128,160
1773579081.2191453,21.4,30.7,0,-4188,124,132
1773579081.2397213,21.4,30.7,0,-4188,124,132
1773579081.260371,21.4,30.7,0,-4148,144,148
1773579081.2807677,21.4,30.7,0,-4148,144,148
1773579081.3012302,21.4,30.7,0,-4148,144,148
1773579081.3216052,21.4,30.7,0,-4152,156,128
1773579081.342347,21.4,30.7,0,-4152,156,128
1773579081.362727,21.4,30.7,0,-4152,156,128
1773579081.383618,21.4,30.7,0,-4152,112,92
1773579081.4042125,21.4,30.7,0,-4152,112,92
1773579081.4249945,21.4,30.7,0,-4180,96,168
1773579081.4457386,21.4,30.7,0,-4180,96,168
1773579081.4664612,21.4,30.7,0,-4180,96,168
1773579081.486924,21.4,30.7,0,-4172,168,108
1773579081.5077994,21.4,30.7,0,-4172,168,108
1773579081.5286064,21.4,30.7,0,-4204,132,156
1773579081.5493166,21.4,30.7,0,-4204,132,156
1773579081.5698235,21.4,30.7,0,-4204,132,156
1773579081.590389,21.4,30.7,0,-4180,140,72
1773579081.6109345,21.4,30.7,0,-4180,140,72
1773579081.6317472,21.4,30.7,0,-4164,148,96
1773579081.6524274,21.4,30.7,0,-4164,148,96
1773579081.6727955,21.4,30.7,0,-4164,148,96
1773579081.6931052,21.4,30.7,0,-4188,148,136
1773579081.7137437,21.4,30.7,0,-4188,148,136
1773579081.7340944,21.4,30.7,0,-4188,148,136
1773579081.7543578,21.4,30.7,0,-4200,112,136
1773579081.7748291,21.4,30.7,0,-4200,112,136
1773579081.7951932,21.4,30.7,0,-4200,112,136
1773579081.8153498,21.4,30.6,0,-4180,140,120
1773579081.8357956,21.4,30.6,0,-4180,140,120
1773579081.856377,21.4,30.6,0,-4180,140,120
1773579081.8770423,21.4,30.6,0,-4192,100,84
1773579081.8977163,21.4,30.6,0,-4192,100,84
1773579081.917995,21.4,30.6,0,-4192,100,84
1773579081.940925,21.4,30.6,0,-4180,132,132
1773579081.961262,21.4,30.6,0,-4180,132,132
1773579081.9821937,21.4,30.6,0,-4168,192,128
1773579082.0034533,21.4,30.6,0,-4168,192,128
1773579082.024377,21.4,30.6,0,-4168,192,128
1773579082.045109,21.4,30.6,0,-4204,116,152
1773579082.0660696,21.4,30.6,0,-4204,116,152
1773579082.0867581,21.4,30.6,0,-4160,124,96
1773579082.107446,21.4,30.6,0,-4160,124,96
1773579082.1280112,21.4,30.6,0,-4160,124,96
1773579082.1485264,21.4,30.6,0,-4172,156,124
1773579082.1701133,21.4,30.6,0,-4172,156,124
1773579082.1908154,21.4,30.6,0,-4192,140,116
1773579082.211963,21.4,30.6,0,-4192,140,116
1773579082.2331467,21.4,30.6,0,-4192,140,116
1773579082.2538304,21.4,30.6,0,-4184,104,96
1773579082.2743454,21.4,30.6,0,-4184,104,96
1773579082.2952888,21.4,30.6,0,-4164,152,128
1773579082.3164303,21.4,30.6,0,-4164,152,128
1773579082.341392,21.4,30.6,0,-4164,152,128
1773579082.3620427,21.4,30.6,0,-4184,160,136
1773579082.3829749,21.4,30.6,0,-4184,160,136
1773579082.403648,21.4,30.6,0,-4180,124,108
1773579082.4243658,21.4,30.6,0,-4180,124,108
1773579082.4452333,21.4,30.6,0,-4180,124,108
1773579082.4658468,21.4,30.6,0,-4152,136,152
1773579082.486047,21.4,30.6,0,-4152,136,152
1773579082.5066583,21.4,30.6,0,-4180,184,140
1773579082.5275142,21.4,30.6,0,-4180,184,140
1773579082.5479255,21.4,30.6,0,-4180,184,140
1773579082.5692618,21.4,30.6,0,-4188,132,100
1773579082.5899153,21.4,30.6,0,-4188,132,100
1773579082.6105072,21.4,30.6,0,-4188,132,100
1773579082.6308458,21.4,30.6,0,-4148,136,100
1773579082.6519196,21.4,30.6,0,-4148,136,100
1773579082.6726446,21.4,30.6,0,-4176,172,132
1773579082.6929727,21.4,30.6,0,-4176,172,132
1773579082.7135096,21.4,30.6,0,-4176,172,132
1773579082.7346246,21.4,30.6,0,-4200,136,128
1773579082.7570941,21.4,30.6,0,-4200,136,128
1773579082.7777884,21.4,30.6,0,-4184,120,100
1773579082.7985275,21.4,30.6,0,-4184,120,100
1773579082.8195682,21.4,30.6,0,-4184,120,100
1773579082.8400936,21.4,30.6,0,-4156,136,140
1773579082.8607626,21.4,30.6,0,-4156,136,140
1773579082.8820107,21.4,30.6,0,-4216,148,156
1773579082.9033442,21.4,30.6,0,-4216,148,156
1773579082.924054,21.4,30.6,0,-4216,148,156
1773579082.9448657,21.4,30.6,0,-4184,124,104
1773579082.965486,21.4,30.6,0,-4184,124,104
1773579082.986106,21.4,30.6,0,-4156,124,136
1773579083.0066159,21.4,30.6,0,-4156,124,136
1773579083.026982,21.4,30.6,0,-4156,124,136
1773579083.0473757,21.4,30.6,0,-4200,180,136
1773579083.0699768,21.4,30.6,0,-4200,180,136
1773579083.0905256,21.4,30.6,0,-4196,152,120
1773579083.1108696,21.4,30.6,0,-4196,152,120
1773579083.1315002,21.4,30.6,0,-4196,152,120
1773579083.1522865,21.4,30.6,0,-4160,116,120
1773579083.173022,21.4,30.6,0,-4160,116,120
1773579083.1934803,21.4,30.6,0,-4160,116,120
1773579083.214057,21.4,30.6,0,-4148,172,144
1773579083.239069,21.4,30.6,0,-4148,172,144
1773579083.2594914,21.4,30.6,0,-4188,144,128
1773579083.2797327,21.4,30.6,0,-4188,144,128
1773579083.3006175,21.4,30.6,0,-4188,144,128
1773579083.3213248,21.4,30.6,0,-4184,120,100
1773579083.341894,21.4,30.6,0,-4184,120,100
1773579083.362167,21.4,30.6,0,-4156,160,132
1773579083.3825743,21.4,30.6,0,-4156,160,132
1773579083.4027832,21.4,30.6,0,-4156,160,132
1773579083.4232159,21.4,30.6,0,-4212,164,140
1773579083.4438055,21.4,30.6,0,-4212,164,140
1773579083.4643483,21.4,30.6,0,-4184,140,84
1773579083.4858441,21.4,30.6,0,-4184,140,84
1773579083.50654,21.4,30.6,0,-4184,140,84
1773579083.5270603,21.4,30.6,0,-4164,128,128
1773579083.5477593,21.4,30.6,0,-4164,128,128
1773579083.568776,21.4,30.6,0,-4188,172,124
1773579083.589187,21.4,30.6,0,-4188,172,124
1773579083.6100936,21.4,30.6,0,-4188,172,124
1773579083.6307719,21.4,30.6,0,-4196,136,88
1773579083.6532679,21.4,30.6,0,-4196,136,88
1773579083.674124,21.4,30.6,0,-4180,108,120
1773579083.695351,21.4,30.6,0,-4180,108,120
1773579083.7158775,21.4,30.6,0,-4180,108,120
1773579083.737589,21.4,30.6,0,-4180,168,120
1773579083.7580616,21.4,30.6,0,-4180,168,120
1773579083.7785344,21.4,30.6,0,-4180,168,120
1773579083.8000476,21.4,30.6,0,-4216,152,152
1773579083.8207896,21.4,30.6,0,-4216,152,152
1773579083.8414874,21.4,30.6,0,-4216,152,152
1773579083.8621302,21.4,30.6,0,-4144,172,132
1773579083.8824654,21.4,30.6,0,-4144,172,132
1773579083.9031858,21.4,30.6,0,-4144,172,132
1773579083.923761,21.4,30.6,0,-4208,144,124
1773579083.9440107,21.4,30.6,0,-4208,144,124
1773579083.9643197,21.4,30.6,0,-4140,116,112
1773579083.9875734,21.4,30.6,0,-4140,116,112
1773579084.0080452,21.4,30.6,0,-4140,116,112
1773579084.0287435,21.4,30.6,0,-4176,164,172
1773579084.0492156,21.4,30.6,0,-4176,164,172
1773579084.0693789,21.4,30.6,0,-4200,168,140
1773579084.0899549,21.4,30.6,0,-4200,168,140
1773579084.110768,21.4,30.6,0,-4200,168,140
1773579084.1314533,21.4,30.6,0,-4184,136,112
1773579084.1521554,21.4,30.6,0,-4184,136,112
1773579084.1726582,21.4,30.6,0,-4184,136,112
1773579084.193388,21.4,30.6,0,-4184,140,148
1773579084.214224,21.4,30.6,0,-4184,140,148
1773579084.234709,21.4,30.6,0,-4172,164,128
1773579084.2554328,21.4,30.6,0,-4172,164,128
1773579084.2762299,21.4,30.6,0,-4172,164,128
1773579084.2970357,21.4,30.6,0,-4180,156,116
1773579084.3179173,21.4,30.6,0,-4180,156,116
1773579084.3386755,21.4,30.6,0,-4144,128,108
1773579084.3593092,21.4,30.6,0,-4144,128,108
1773579084.3796928,21.4,30.6,0,-4144,128,108
1773579084.4006803,21.4,30.6,0,-4188,184,136
1773579084.4214275,21.4,30.6,0,-4188,184,136
1773579084.4418228,21.4,30.6,0,-4196,152,120
1773579084.4623702,21.4,30.6,0,-4196,152,120
1773579084.4832816,21.4,30.6,0,-4196,152,120
1773579084.5037577,21.4,30.6,0,-4180,112,116
1773579084.5242386,21.4,30.6,0,-4180,112,116
1773579084.545038,21.4,30.6,0,-4180,112,116
1773579084.5657024,21.4,30.6,0,-4168,164,144
1773579084.5862584,21.4,30.6,0,-4168,164,144
1773579084.6072114,21.4,30.6,0,-4180,160,144
1773579084.6286948,21.4,30.6,0,-4180,160,144
1773579084.64954,21.4,30.6,0,-4180,160,144
1773579084.6698487,21.4,30.6,0,-4188,120,104
1773579084.6907625,21.4,30.6,0,-4188,120,104
1773579084.7117863,21.4,30.6,0,-4128,112,136
1773579084.7329202,21.4,30.6,0,-4128,112,136
1773579084.754303,21.4,30.6,0,-4128,112,136
1773579084.7755797,21.4,30.6,0,-4208,184,152
1773579084.7959821,21.4,30.6,0,-4208,184,152
1773579084.816596,21.4,30.6,0,-4192,152,88
1773579084.8386247,21.4,30.6,0,-4192,152,88
1773579084.8594272,21.4,30.6,0,-4192,152,88
1773579084.8805974,21.4,30.6,0,-4156,112,160
1773579084.9017932,21.4,30.6,0,-4156,112,160
1773579084.9224796,21.4,30.6,0,-4180,176,140
1773579084.942999,21.4,30.6,0,-4180,176,140
1773579084.9638793,21.4,30.6,0,-4180,176,140
1773579084.9864602,21.4,30.6,0,-4204,156,120
1773579085.0070145,21.4,30.6,0,-4204,156,120
1773579085.0274334,21.4,30.6,0,-4188,108,96
1773579085.047664,21.4,30.6,0,-4188,108,96
1773579085.068326,21.4,30.6,0,-4188,108,96
1773579085.09043,21.4,30.6,0,-4180,156,148
1773579085.1111588,21.4,30.6,0,-4180,156,148
1773579085.1317744,21.4,30.6,0,-4180,156,148
1773579085.1522534,21.4,30.6,0,-4192,164,128
1773579085.173366,21.4,30.6,0,-4192,164,128
1773579085.1936212,21.4,30.6,0,-4188,140,84
1773579085.2161937,21.4,30.6,0,-4188,140,84
1773579085.2366977,21.4,30.6,0,-4188,140,84
1773579085.258411,21.4,30.6,0,-4168,140,148
1773579085.2790399,21.4,30.6,0,-4168,140,148
1773579085.3000004,21.4,30.6,0,-4172,168,136
1773579085.320382,21.4,30.6,0,-4172,168,136
1773579085.3410738,21.4,30.6,0,-4172,168,136
1773579085.3613837,21.4,30.6,0,-4200,160,104
1773579085.3819327,21.4,30.6,0,-4200,160,104
1773579085.4021735,21.4,30.6,0,-4172,100,144
1773579085.4225612,21.4,30.6,0,-4172,100,144
1773579085.4431977,21.4,30.6,0,-4172,100,144
1773579085.463893,21.4,30.6,0,-4172,156,144
1773579085.4849892,21.4,30.6,0,-4172,156,144
1773579085.5052614,21.4,30.6,0,-4192,148,136
1773579085.5269244,21.4,30.6,0,-4192,148,136
1773579085.5473766,21.4,30.6,0,-4192,148,136
1773579085.5683787,21.4,30.6,0,-4172,124,112
1773579085.588844,21.4,30.6,0,-4172,124,112
1773579085.6117444,21.4,30.6,0,-4180,144,144
1773579085.6328704,21.4,30.6,0,-4180,144,144
1773579085.6545682,21.4,30.6,0,-4180,144,144
1773579085.6756232,21.4,30.6,0,-4188,144,152
1773579085.696175,21.4,30.6,0,-4188,144,152
1773579085.7165997,21.4,30.6,0,-4200,136,120
1773579085.737305,21.4,30.6,0,-4200,136,120
1773579085.7576282,21.4,30.6,0,-4200,136,120
1773579085.778075,21.4,30.6,0,-4136,120,136
1773579085.7987094,21.4,30.6,0,-4136,120,136
1773579085.8193884,21.4,30.6,0,-4136,120,136
1773579085.8398185,21.4,30.6,0,-4188,180,144
1773579085.8603761,21.4,30.6,0,-4188,180,144
1773579085.8813133,21.4,30.6,0,-4188,180,144
1773579085.9025695,21.4,30.5,0,-4152,156,172
1773579085.924286,21.4,30.5,0,-4152,156,172
1773579085.9450648,21.4,30.5,0,-4152,156,172
1773579085.9663315,21.4,30.5,0,-4184,172,128
1773579085.9866068,21.4,30.5,0,-4184,172,128
1773579086.0068877,21.4,30.5,0,-4152,128,112
1773579086.0279522,21.4,30.5,0,-4152,128,112
1773579086.050626,21.4,30.5,0,-4152,128,112
1773579086.0708897,21.4,30.5,0,-4144,120,144
1773579086.0913584,21.4,30.5,0,-4144,120,144
1773579086.1120229,21.4,30.5,0,-4144,120,144
1773579086.1330543,21.4,30.5,0,-4180,176,132
1773579086.1537273,21.4,30.5,0,-4180,176,132
1773579086.1742234,21.4,30.5,0,-4196,136,120
1773579086.1946123,21.4,30.5,0,-4196,136,120
1773579086.2156258,21.4,30.5,0,-4196,136,120
1773579086.2363524,21.4,30.5,0,-4164,80,132
1773579086.256719,21.4,30.5,0,-4164,80,132
1773579086.27731,21.4,30.5,0,-4164,188,156
1773579086.2982092,21.4,30.5,0,-4164,188,156
1773579086.319231,21.4,30.5,0,-4164,188,156
1773579086.3398936,21.4,30.5,0,-4180,172,136
1773579086.3608222,21.4,30.5,0,-4180,172,136
1773579086.3814762,21.4,30.5,0,-4184,124,92
1773579086.402272,21.4,30.5,0,-4184,124,92
1773579086.42296,21.4,30.5,0,-4184,124,92
1773579086.4442706,21.4,30.5,0,-4152,140,148
1773579086.4647853,21.4,30.5,0,-4152,140,148
1773579086.4851182,21.4,30.5,0,-4184,176,136
1773579086.505605,21.4,30.5,0,-4184,176,136
1773579086.5262218,21.4,30.5,0,-4184,176,136
1773579086.5465915,21.4,30.5,0,-4200,132,116
1773579086.569887,21.4,30.5,0,-4200,132,116
1773579086.5906012,21.4,30.5,0,-4156,128,148
1773579086.610975,21.4,30.5,0,-4156,128,148
1773579086.6319056,21.4,30.5,0,-4156,128,148
1773579086.652143,21.4,30.5,0,-4176,168,152
1773579086.6727238,21.4,30.5,0,-4176,168,152
1773579086.693606,21.4,30.5,0,-4176,168,152
1773579086.7139847,21.4,30.5,0,-4184,160,104
1773579086.7356987,21.4,30.5,0,-4184,160,104
1773579086.756238,21.4,30.5,0,-4172,104,124
1773579086.7772284,21.4,30.5,0,-4172,104,124
1773579086.7975242,21.4,30.5,0,-4172,104,124
1773579086.8183134,21.4,30.5,0,-4180,144,160
1773579086.8388066,21.4,30.5,0,-4180,144,160
1773579086.8592494,21.4,30.5,0,-4192,168,132
1773579086.8802307,21.4,30.5,0,-4192,168,132
1773579086.9018037,21.4,30.5,0,-4192,168,132
1773579086.9226754,21.4,30.5,0,-4180,124,104
1773579086.9437199,21.4,30.5,0,-4180,124,104
1773579086.9642513,21.4,30.5,0,-4176,128,136
1773579086.9847107,21.4,30.5,0,-4176,128,136
1773579087.005147,21.4,30.5,0,-4176,128,136
1773579087.0256767,21.4,30.5,0,-4192,172,124
1773579087.0471082,21.4,30.5,0,-4192,172,124
1773579087.069309,21.4,30.5,0,-4192,172,124
1773579087.089786,21.4,30.5,0,-4200,136,104
1773579087.1105688,21.4,30.5,0,-4200,136,104
1773579087.1311433,21.4,30.5,0,-4140,116,140
1773579087.1523006,21.4,30.5,0,-4140,116,140
1773579087.1731482,21.4,30.5,0,-4140,116,140
1773579087.193765,21.4,30.5,0,-4172,180,152
1773579087.2149806,21.4,30.5,0,-4172,180,152
1773579087.2359009,21.4,30.5,0,-4196,140,132
1773579087.2562923,21.4,30.5,0,-4196,140,132
1773579087.2769072,21.4,30.5,0,-4196,140,132
1773579087.2981565,21.4,30.5,0,-4160,100,124
1773579087.3187091,21.4,30.5,0,-4160,100,124
1773579087.3393917,21.4,30.5,0,-4164,148,144
1773579087.3598502,21.4,30.5,0,-4164,148,144
1773579087.3804257,21.4,30.5,0,-4164,148,144
1773579087.400903,21.4,30.5,0,-4192,184,120
1773579087.421758,21.4,30.5,0,-4192,184,120
1773579087.4425352,21.4,30.5,0,-4172,108,108
1773579087.4634852,21.4,30.5,0,-4172,108,108
1773579087.4843647,21.4,30.5,0,-4172,108,108
1773579087.5057878,21.4,30.5,0,-4160,140,156
1773579087.5266516,21.4,30.5,0,-4160,140,156
1773579087.547346,21.4,30.5,0,-4176,168,152
1773579087.5685413,21.4,30.5,0,-4176,168,152
1773579087.589193,21.4,30.5,0,-4176,168,152
1773579087.6102808,21.4,30.5,0,-4204,140,104
1773579087.6306627,21.4,30.5,0,-4204,140,104
1773579087.6521618,21.4,30.5,0,-4204,140,104
1773579087.6723993,21.4,30.5,0,-4160,112,112
1773579087.6929393,21.4,30.5,0,-4160,112,112
1773579087.7132573,21.4,30.5,0,-4196,180,156
1773579087.73415,21.4,30.5,0,-4196,180,156
1773579087.7547882,21.4,30.5,0,-4196,180,156
1773579087.775347,21.4,30.5,0,-4192,156,100
1773579087.7956972,21.4,30.5,0,-4192,156,100
1773579087.816326,21.4,30.5,0,-4176,100,120
1773579087.838458,21.4,30.5,0,-4176,100,120
1773579087.8592634,21.4,30.5,0,-4176,100,120
1773579087.8797224,21.4,30.5,0,-4144,140,128
1773579087.9004998,21.4,30.5,0,-4144,140,128
1773579087.9208403,21.4,30.5,0,-4144,140,128
1773579087.9412897,21.4,30.5,0,-4144,140,128
1773579087.9618194,21.4,30.5,0,-4168,112,132
1773579087.9862463,21.4,30.5,0,-4168,112,132
1773579088.0069175,21.4,30.5,0,-4168,160,140
1773579088.0274959,21.4,30.5,0,-4168,160,140
1773579088.0480812,21.4,30.5,0,-4168,160,140
1773579088.0687487,21.4,30.5,0,-4204,160,136
1773579088.0893095,21.4,30.5,0,-4204,160,136
1773579088.1100025,21.4,30.5,0,-4168,116,128
1773579088.1307003,21.4,30.5,0,-4168,116,128
1773579088.1515455,21.4,30.5,0,-4168,116,128
1773579088.1720943,21.4,30.5,0,-4124,136,160
1773579088.1930137,21.4,30.5,0,-4124,136,160
1773579088.213821,21.4,30.5,0,-4184,164,132
1773579088.2366617,21.4,30.5,0,-4184,164,132
1773579088.2571876,21.4,30.5,0,-4184,164,132
1773579088.278023,21.4,30.5,0,-4168,128,100
1773579088.2987914,21.4,30.5,0,-4168,128,100
1773579088.319396,21.4,30.5,0,-4140,132,128
1773579088.339905,21.4,30.5,0,-4140,132,128
1773579088.3606963,21.4,30.5,0,-4140,132,128
1773579088.3815913,21.4,30.5,0,-4196,184,160
1773579088.4022377,21.4,30.5,0,-4196,184,160
1773579088.423051,21.4,30.5,0,-4188,124,92
1773579088.4437504,21.4,30.5,0,-4188,124,92
1773579088.4645534,21.4,30.5,0,-4188,124,92
1773579088.4859161,21.4,30.5,0,-4164,128,136
1773579088.5068154,21.4,30.5,0,-4164,128,136
1773579088.5279176,21.4,30.5,0,-4164,128,136
1773579088.5489068,21.4,30.5,0,-4168,152,156
1773579088.5696192,21.4,30.5,0,-4168,152,156
1773579088.5899568,21.4,30.5,0,-4200,176,120
1773579088.6104946,21.4,30.5,0,-4200,176,120
1773579088.6308646,21.4,30.5,0,-4200,176,120
1773579088.6517422,21.4,30.5,0,-4148,124,140
1773579088.6721942,21.4,30.5,0,-4148,124,140
1773579088.6930463,21.4,30.5,0,-4176,168,132
1773579088.7137341,21.4,30.5,0,-4176,168,132
1773579088.7343686,21.4,30.5,0,-4176,168,132
1773579088.7550826,21.4,30.5,0,-4180,184,116
1773579088.7757623,21.4,30.5,0,-4180,184,116
1773579088.7966204,21.4,30.5,0,-4204,116,80
1773579088.8168817,21.4,30.5,0,-4204,116,80
1773579088.8396246,21.4,30.5,0,-4204,116,80
1773579088.8611083,21.4,30.5,0,-4132,116,144
1773579088.8817627,21.4,30.5,0,-4132,116,144
1773579088.9020782,21.4,30.5,0,-4156,160,116
1773579088.9225657,21.4,30.5,0,-4156,160,116
1773579088.9429655,21.4,30.5,0,-4156,160,116
1773579088.9635222,21.4,30.5,0,-4204,160,136
1773579088.9842381,21.4,30.5,0,-4204,160,136
1773579089.004859,21.4,30.5,0,-4204,160,136
1773579089.0251873,21.4,30.5,0,-4160,96,124
1773579089.045549,21.4,30.5,0,-4160,96,124
1773579089.0663717,21.4,30.5,0,-4156,140,132
1773579089.0871494,21.4,30.5,0,-4156,140,132
1773579089.1075363,21.4,30.5,0,-4156,140,132
1773579089.1283443,21.4,30.5,0,-4188,184,128
1773579089.1494958,21.4,30.5,0,-4188,184,128
1773579089.1701572,21.4,30.5,0,-4156,116,104
1773579089.1905038,21.4,30.5,0,-4156,116,104
1773579089.210966,21.4,30.5,0,-4156,116,104
1773579089.2319772,21.4,30.5,0,-4168,152,136
1773579089.2526834,21.4,30.5,0,-4168,152,136
1773579089.273285,21.4,30.5,0,-4184,164,128
1773579089.293631,21.4,30.5,0,-4184,164,128
1773579089.3140676,21.4,30.5,0,-4184,164,128
1773579089.334724,21.4,30.5,0,-4200,136,108
1773579089.3550167,21.4,30.5,0,-4200,136,108
1773579089.3758423,21.4,30.5,0,-4200,136,108
1773579089.3963945,21.4,30.5,0,-4168,120,128
1773579089.4168496,21.4,30.5,0,-4168,120,128
1773579089.4373074,21.4,30.5,0,-4184,148,144
1773579089.4577124,21.4,30.5,0,-4184,148,144
1773579089.478389,21.4,30.5,0,-4184,148,144
1773579089.4986844,21.4,30.5,0,-4188,164,112
1773579089.5193164,21.4,30.5,0,-4188,164,112
1773579089.5397902,21.4,30.5,0,-4164,96,104
1773579089.560536,21.4,30.5,0,-4164,96,104
1773579089.5813975,21.4,30.5,0,-4164,96,104
1773579089.6020823,21.4,30.5,0,-4148,156,140
1773579089.6224349,21.4,30.5,0,-4148,156,140
1773579089.6427414,21.4,30.5,0,-4148,156,140
1773579089.6644766,21.4,30.5,0,-4208,172,124
1773579089.6858342,21.4,30.5,0,-4208,172,124
1773579089.706626,21.4,30.5,0,-4184,108,108
1773579089.727202,21.4,30.5,0,-4184,108,108
1773579089.7475986,21.4,30.5,0,-4184,108,108
1773579089.7689054,21.4,30.5,0,-4140,132,152
1773579089.790103,21.4,30.5,0,-4140,132,152
1773579089.810656,21.4,30.5,0,-4204,180,132
1773579089.8314185,21.4,30.5,0,-4204,180,132
1773579089.851917,21.4,30.5,0,-4204,180,132
1773579089.8723214,21.4,30.5,0,-4180,128,120
1773579089.8930914,21.4,30.5,0,-4180,128,120
1773579089.9139495,21.4,30.5,0,-4156,104,132
1773579089.934943,21.4,30.5,0,-4156,104,132
1773579089.9554899,21.4,30.5,0,-4156,104,132
1773579089.976295,21.4,30.5,0,-4156,104,132
1773579089.9979868,21.5,30.5,0,-4176,132,96
1773579090.0185518,21.5,30.5,0,-4176,132,96
1773579090.0407076,21.5,30.5,0,-4176,132,96
1773579090.0614665,21.5,30.5,0,-4152,120,156
1773579090.0819144,21.5,30.5,0,-4152,120,156
1773579090.1023295,21.5,30.5,0,-4172,164,140
1773579090.122584,21.5,30.5,0,-4172,164,140
1773579090.143115,21.5,30.5,0,-4172,164,140
1773579090.1635766,21.5,30.5,0,-4172,112,104
1773579090.1839771,21.5,30.5,0,-4172,112,104
1773579090.2044325,21.5,30.5,0,-4168,152,136
1773579090.2267132,21.5,30.5,0,-4168,152,136
1773579090.2475789,21.5,30.5,0,-4168,152,136
1773579090.2681477,21.5,30.5,0,-4188,160,136
1773579090.2885985,21.5,30.5,0,-4188,160,136
1773579090.3091514,21.5,30.5,0,-4208,168,120
1773579090.329392,21.5,30.5,0,-4208,168,120
1773579090.3499417,21.5,30.5,0,-4208,168,120
1773579090.3706908,21.5,30.5,0,-4180,104,116
1773579090.3910954,21.5,30.5,0,-4180,104,116
1773579090.4119601,21.5,30.5,0,-4172,144,152
1773579090.4328654,21.5,30.5,0,-4172,144,152
1773579090.4537125,21.5,30.5,0,-4172,144,152
1773579090.4743533,21.5,30.5,0,-4172,192,136
1773579090.4952302,21.5,30.5,0,-4172,192,136
1773579090.5165234,21.5,30.5,0,-4172,192,136
1773579090.537156,21.5,30.5,0,-4168,116,96
1773579090.5578039,21.5,30.5,0,-4168,116,96
1773579090.5783138,21.5,30.5,0,-4160,116,140
1773579090.5986764,21.5,30.5,0,-4160,116,140
1773579090.6195729,21.5,30.5,0,-4160,116,140
1773579090.6400633,21.5,30.5,0,-4196,176,132
1773579090.660608,21.5,30.5,0,-4196,176,132
1773579090.6811395,21.5,30.5,0,-4192,140,132
1773579090.7018797,21.5,30.5,0,-4192,140,132
1773579090.7222877,21.5,30.5,0,-4192,140,132
1773579090.742834,21.5,30.5,0,-4152,132,132
1773579090.7634013,21.5,30.5,0,-4152,132,132
1773579090.7838023,21.5,30.5,0,-4176,140,160
1773579090.803984,21.5,30.5,0,-4176,140,160
1773579090.8251374,21.5,30.5,0,-4176,140,160
1773579090.8458438,21.5,30.5,0,-4212,156,104
1773579090.8664796,21.5,30.5,0,-4212,156,104
1773579090.8872817,21.5,30.5,0,-4212,156,104
1773579090.9077625,21.5,30.5,0,-4172,104,124
1773579090.9282284,21.5,30.5,0,-4172,104,124
1773579090.9485755,21.5,30.5,0,-4148,116,168
1773579090.9688616,21.5,30.5,0,-4148,116,168
1773579090.9896274,21.5,30.5,0,-4148,116,168
1773579091.0100927,21.5,30.5,0,-4180,156,128
1773579091.030806,21.5,30.5,0,-4180,156,128
1773579091.0521038,21.5,30.5,0,-4188,128,100
1773579091.072502,21.5,30.5,0,-4188,128,100
1773579091.0930896,21.5,30.5,0,-4188,128,100
1773579091.1142333,21.5,30.5,0,-4140,124,128
1773579091.134727,21.5,30.5,0,-4140,124,128
1773579091.1568122,21.5,30.5,0,-4140,124,128
1773579091.1785414,21.5,30.5,0,-4184,164,156
1773579091.1990178,21.5,30.5,0,-4184,164,156
1773579091.2196558,21.5,30.5,0,-4192,140,120
1773579091.2401283,21.5,30.5,0,-4192,140,120
1773579091.2606113,21.5,30.5,0,-4192,140,120
1773579091.2815902,21.5,30.5,0,-4168,120,116
1773579091.3019578,21.5,30.5,0,-4168,120,116
1773579091.3223827,21.5,30.5,0,-4160,140,136
1773579091.3431573,21.5,30.5,0,-4160,140,136
1773579091.363934,21.5,30.5,0,-4160,140,136
1773579091.3841896,21.5,30.5,0,-4224,180,128
1773579091.4044833,21.5,30.5,0,-4224,180,128
1773579091.4251604,21.5,30.5,0,-4168,92,96
1773579091.4455416,21.5,30.5,0,-4168,92,96
1773579091.4663007,21.5,30.5,0,-4168,92,96
1773579091.4871764,21.5,30.5,0,-4148,116,128
1773579091.5095015,21.5,30.5,0,-4148,116,128
1773579091.5302038,21.5,30.5,0,-4164,184,132
1773579091.5505168,21.5,30.5,0,-4164,184,132
1773579091.5710075,21.5,30.5,0,-4164,184,132
1773579091.5916672,21.5,30.5,0,-4176,128,120
1773579091.6121187,21.5,30.5,0,-4176,128,120
1773579091.6328154,21.5,30.5,0,-4176,128,120
1773579091.656115,21.5,30.5,0,-4156,124,120
1773579091.67691,21.5,30.5,0,-4156,124,120
1773579091.6974082,21.5,30.5,0,-4176,148,140
1773579091.7181113,21.5,30.5,0,-4176,148,140
1773579091.7388043,21.5,30.5,0,-4176,148,140
1773579091.7589967,21.5,30.5,0,-4212,164,132
1773579091.779806,21.5,30.5,0,-4212,164,132
1773579091.8005412,21.5,30.5,0,-4164,104,116
1773579091.8214037,21.5,30.5,0,-4164,104,116
1773579091.8422122,21.5,30.5,0,-4164,104,116
1773579091.862681,21.5,30.5,0,-4124,132,140
1773579091.8830855,21.5,30.5,0,-4124,132,140
1773579091.9037755,21.5,30.5,0,-4184,168,148
1773579091.9243133,21.5,30.5,0,-4184,168,148
1773579091.9446845,21.5,30.5,0,-4184,168,148
1773579091.9654443,21.5,30.5,0,-4172,124,88
1773579091.9883223,21.5,30.5,0,-4172,124,88
1773579092.009114,21.5,30.5,0,-4172,124,88
1773579092.0299363,21.5,30.4,0,-4200,180,120
1773579092.051789,21.5,30.4,0,-4200,180,120
1773579092.0725517,21.5,30.4,0,-4200,180,120
1773579092.0934157,21.5,30.4,0,-4160,112,100
1773579092.1144068,21.5,30.4,0,-4160,112,100
1773579092.135463,21.5,30.4,0,-4160,112,100
1773579092.1560442,21.5,30.4,0,-4164,132,144
1773579092.1769996,21.5,30.4,0,-4164,132,144
1773579092.1974359,21.5,30.4,0,-4200,176,156
1773579092.218974,21.5,30.4,0,-4200,176,156
1773579092.240093,21.5,30.4,0,-4200,176,156
1773579092.2608464,21.5,30.4,0,-4200,140,68
1773579092.2811618,21.5,30.4,0,-4200,140,68
1773579092.301814,21.5,30.4,0,-4144,116,124
1773579092.3224146,21.5,30.4,0,-4144,116,124
1773579092.3429585,21.5,30.4,0,-4144,116,124
1773579092.3635929,21.5,30.4,0,-4196,180,140
1773579092.384976,21.5,30.4,0,-4196,180,140
1773579092.4056294,21.5,30.4,0,-4204,144,84
1773579092.4262743,21.5,30.4,0,-4204,144,84
1773579092.447059,21.5,30.4,0,-4204,144,84
1773579092.4679198,21.5,30.4,0,-4168,120,88
1773579092.4887843,21.5,30.4,0,-4168,120,88
1773579092.5094995,21.5,30.4,0,-4180,160,164
1773579092.5300322,21.5,30.4,0,-4180,160,164
1773579092.5505793,21.5,30.4,0,-4180,160,164
1773579092.5712345,21.5,30.4,0,-4196,148,128
1773579092.5918713,21.5,30.4,0,-4196,148,128
1773579092.6126957,21.5,30.4,0,-4196,148,128
1773579092.633232,21.5,30.4,0,-4168,116,96
1773579092.6540194,21.5,30.4,0,-4168,116,96
1773579092.674783,21.5,30.4,0,-4160,128,144
1773579092.6950977,21.5,30.4,0,-4160,128,144
1773579092.7159367,21.5,30.4,0,-4160,128,144
1773579092.7366805,21.5,30.4,0,-4192,160,152
1773579092.7576032,21.5,30.4,0,-4192,160,152
1773579092.7783387,21.5,30.4,0,-4212,144,124
1773579092.7985663,21.5,30.4,0,-4212,144,124
1773579092.8188374,21.5,30.4,0,-4212,144,124
1773579092.8395991,21.5,30.4,0,-4136,120,132
1773579092.8603246,21.5,30.4,0,-4136,120,132
1773579092.8809924,21.5,30.4,0,-4180,172,156
1773579092.9026718,21.5,30.4,0,-4180,172,156
1773579092.9229054,21.5,30.4,0,-4180,172,156
1773579092.943466,21.5,30.4,0,-4208,128,124
1773579092.9643552,21.5,30.4,0,-4208,128,124
1773579092.9856896,21.5,30.4,0,-4208,128,124
1773579093.0072749,21.5,30.4,0,-4136,104,100
1773579093.0294409,21.5,30.4,0,-4136,104,100
1773579093.0502644,21.5,30.4,0,-4164,148,140
1773579093.0724523,21.5,30.4,0,-4164,148,140
1773579093.0933537,21.5,30.4,0,-4188,176,108
1773579093.1139488,21.5,30.4,0,-4188,176,108
1773579093.136297,21.5,30.4,0,-4188,176,108
1773579093.156805,21.5,30.4,0,-4172,124,128
1773579093.1776605,21.5,30.4,0,-4172,124,128
1773579093.198649,21.5,30.4,0,-4156,124,140
1773579093.2202742,21.5,30.4,0,-4156,124,140
1773579093.2408934,21.5,30.4,0,-4156,124,140
1773579093.2614079,21.5,30.4,0,-4168,164,124
1773579093.2817607,21.5,30.4,0,-4168,164,124
1773579093.3023434,21.5,30.4,0,-4168,164,124
1773579093.3230217,21.5,30.4,0,-4208,164,96
1773579093.3435342,21.5,30.4,0,-4208,164,96
1773579093.3637745,21.5,30.4,0,-4144,108,132
1773579093.3842108,21.5,30.4,0,-4144,108,132
1773579093.4047337,21.5,30.4,0,-4144,108,132
1773579093.4253614,21.5,30.4,0,-4172,152,152
1773579093.4462483,21.5,30.4,0,-4172,152,152
1773579093.466806,21.5,30.4,0,-4200,148,112
1773579093.487463,21.5,30.4,0,-4200,148,112
1773579093.50832,21.5,30.4,0,-4200,148,112
1773579093.528775,21.5,30.4,0,-4176,116,104
1773579093.549189,21.5,30.4,0,-4176,116,104
1773579093.5696096,21.5,30.4,0,-4176,116,104
1773579093.5909946,21.5,30.4,0,-4152,124,136
1773579093.6116173,21.5,30.4,0,-4152,124,136
1773579093.6332264,21.5,30.4,0,-4192,184,112
1773579093.654035,21.5,30.4,0,-4192,184,112
1773579093.6747184,21.5,30.4,0,-4192,184,112
1773579093.695357,21.5,30.4,0,-4192,140,128
1773579093.715678,21.5,30.4,0,-4192,140,128
1773579093.7363803,21.5,30.4,0,-4164,128,124
1773579093.7569168,21.5,30.4,0,-4164,128,124
1773579093.7775211,21.5,30.4,0,-4164,128,124
1773579093.7979252,21.5,30.4,0,-4184,148,164
1773579093.818455,21.5,30.4,0,-4184,148,164
1773579093.8386297,21.5,30.4,0,-4204,116,112
1773579093.8593054,21.5,30.4,0,-4204,116,112
1773579093.879701,21.5,30.4,0,-4204,116,112
1773579093.9002676,21.5,30.4,0,-4132,116,100
1773579093.9208875,21.5,30.4,0,-4132,116,100
1773579093.9416106,21.5,30.4,0,-4176,152,132
1773579093.9619522,21.5,30.4,0,-4176,152,132
1773579093.9826188,21.5,30.4,0,-4176,152,132
1773579094.0032568,21.5,30.4,0,-4184,160,140
1773579094.0237865,21.5,30.4,0,-4184,160,140
1773579094.044245,21.5,30.4,0,-4184,160,140
1773579094.0646799,21.5,30.4,0,-4184,160,140
1773579094.085749,21.5,30.4,0,-4168,160,156
1773579094.1060126,21.5,30.4,0,-4168,160,156
1773579094.126951,21.5,30.4,0,-4188,164,132
1773579094.1474335,21.5,30.4,0,-4188,164,132
1773579094.167974,21.5,30.4,0,-4188,164,132
1773579094.1887581,21.5,30.4,0,-4172,112,120
1773579094.209785,21.5,30.4,0,-4172,112,120
1773579094.2303174,21.5,30.4,0,-4172,112,120
1773579094.2509043,21.5,30.4,0,-4164,176,152
1773579094.2721255,21.5,30.4,0,-4164,176,152
1773579094.2927296,21.5,30.4,0,-4204,164,136
1773579094.3134766,21.5,30.4,0,-4204,164,136
1773579094.33381,21.5,30.4,0,-4204,164,136
1773579094.3546286,21.5,30.4,0,-4156,116,128
1773579094.3748982,21.5,30.4,0,-4156,116,128
1773579094.395344,21.5,30.4,0,-4160,128,152
1773579094.4158645,21.5,30.4,0,-4160,128,152
1773579094.4364667,21.5,30.4,0,-4160,128,152
1773579094.4574983,21.5,30.4,0,-4196,192,168
1773579094.4785326,21.5,30.4,0,-4196,192,168
1773579094.4992208,21.5,30.4,0,-4184,128,96
1773579094.520938,21.5,30.4,0,-4184,128,96
1773579094.541957,21.5,30.4,0,-4184,128,96
1773579094.5633101,21.5,30.4,0,-4164,96,144
1773579094.5848973,21.5,30.4,0,-4164,96,144
1773579094.6054528,21.5,30.4,0,-4164,96,144
1773579094.6266115,21.5,30.4,0,-4184,176,136
1773579094.647562,21.5,30.4,0,-4184,176,136
1773579094.669304,21.5,30.4,0,-4196,172,124
1773579094.6900382,21.5,30.4,0,-4196,172,124
1773579094.7108004,21.5,30.4,0,-4156,136,96
1773579094.7316313,21.5,30.4,0,-4156,136,96
1773579094.7525823,21.5,30.4,0,-4156,136,96
1773579094.7735255,21.5,30.4,0,-4160,160,164
1773579094.7945309,21.5,30.4,0,-4160,160,164
1773579094.8162162,21.5,30.4,0,-4160,160,164
1773579094.8376338,21.5,30.4,0,-4208,204,104
1773579094.8582666,21.5,30.4,0,-4208,204,104
1773579094.8789194,21.5,30.4,0,-4196,116,124
1773579094.8996682,21.5,30.4,0,-4196,116,124
1773579094.9206634,21.5,30.4,0,-4196,116,124
1773579094.9416354,21.5,30.4,0,-4172,136,132
1773579094.9625154,21.5,30.4,0,-4172,136,132
1773579094.9830482,21.5,30.4,0,-4172,160,108
1773579095.0035543,21.5,30.4,0,-4172,160,108
1773579095.024378,21.5,30.4,0,-4172,160,108
1773579095.045298,21.5,30.4,0,-4184,164,124
1773579095.0655859,21.5,30.4,0,-4184,164,124
1773579095.0863504,21.5,30.4,0,-4156,100,124
1773579095.1065717,21.5,30.4,0,-4156,100,124
1773579095.126998,21.5,30.4,0,-4156,100,124
1773579095.1475406,21.5,30.4,0,-4136,176,136
1773579095.1681526,21.5,30.4,0,-4136,176,136
1773579095.1886249,21.5,30.4,0,-4200,176,116
1773579095.2091496,21.5,30.4,0,-4200,176,116
1773579095.2300587,21.5,30.4,0,-4200,176,116
1773579095.2509792,21.5,30.4,0,-4192,108,112
1773579095.2712243,21.5,30.4,0,-4192,108,112
1773579095.2930264,21.5,30.4,0,-4192,108,112
1773579095.3139002,21.5,30.4,0,-4148,140,124
1773579095.3352847,21.5,30.4,0,-4148,140,124
1773579095.355886,21.5,30.4,0,-4180,148,136
1773579095.3766165,21.5,30.4,0,-4180,148,136
1773579095.3973796,21.5,30.4,0,-4180,148,136
1773579095.418869,21.5,30.4,0,-4188,124,104
1773579095.439616,21.5,30.4,0,-4188,124,104
1773579095.4602559,21.5,30.4,0,-4160,112,148
1773579095.4828298,21.5,30.4,0,-4160,112,148
1773579095.503847,21.5,30.4,0,-4160,112,148
1773579095.524349,21.5,30.4,0,-4164,168,132
1773579095.545157,21.5,30.4,0,-4164,168,132
1773579095.5657165,21.5,30.4,0,-4188,164,120
1773579095.5863554,21.5,30.4,0,-4188,164,120
1773579095.6070175,21.5,30.4,0,-4188,164,120
1773579095.6281786,21.5,30.4,0,-4144,92,140
1773579095.6487849,21.5,30.4,0,-4144,92,140
1773579095.668995,21.5,30.4,0,-4184,176,148
1773579095.6897368,21.5,30.4,0,-4184,176,148
1773579095.710262,21.5,30.4,0,-4184,176,148
1773579095.7315466,21.5,30.4,0,-4188,212,84
1773579095.7537074,21.5,30.4,0,-4188,212,84
1773579095.775602,21.5,30.4,0,-4184,124,120
1773579095.796096,21.5,30.4,0,-4184,124,120
1773579095.8170028,21.5,30.4,0,-4184,124,120
1773579095.837492,21.5,30.4,0,-4156,168,144
1773579095.8586078,21.5,30.4,0,-4156,168,144
1773579095.8790708,21.5,30.4,0,-4192,204,136
1773579095.899733,21.5,30.4,0,-4192,204,136
1773579095.9205782,21.5,30.4,0,-4192,204,136
1773579095.9414105,21.5,30.4,0,-4180,124,88
1773579095.963227,21.5,30.4,0,-4180,124,88
1773579095.985294,21.5,30.4,0,-4180,124,88
1773579096.0057273,21.5,30.4,0,-4148,132,136
1773579096.0260766,21.5,30.4,0,-4148,132,136
1773579096.0468733,21.5,30.4,0,-4172,172,120
1773579096.0674028,21.5,30.4,0,-4172,172,120
1773579096.0879133,21.5,30.4,0,-4172,172,120
1773579096.108539,21.5,30.4,0,-4172,172,120
1773579096.1297822,21.5,30.4,0,-4156,144,132
1773579096.1518197,21.5,30.4,0,-4156,144,132
1773579096.1723018,21.5,30.4,0,-4168,192,100
1773579096.1935995,21.5,30.4,0,-4168,192,100
1773579096.2141128,21.5,30.4,0,-4168,192,100
1773579096.235865,21.5,30.4,0,-4176,128,100
1773579096.256751,21.5,30.4,0,-4176,128,100
1773579096.277306,21.5,30.4,0,-4132,108,112
1773579096.2977371,21.5,30.4,0,-4132,108,112
1773579096.320947,21.5,30.4,0,-4132,108,112
1773579096.342195,21.5,30.4,0,-4160,156,164
1773579096.3626702,21.5,30.4,0,-4160,156,164
1773579096.3829525,21.5,30.4,0,-4208,132,128
1773579096.4037404,21.5,30.4,0,-4208,132,128
1773579096.4243894,21.5,30.4,0,-4208,132,128
1773579096.4450846,21.5,30.4,0,-4168,84,120
1773579096.4653854,21.5,30.4,0,-4168,84,120
1773579096.4865208,21.5,30.4,0,-4168,84,120
1773579096.5070496,21.5,30.4,0,-4164,108,124
1773579096.5277479,21.5,30.4,0,-4164,108,124
1773579096.548002,21.5,30.4,0,-4196,184,124
1773579096.5692515,21.5,30.4,0,-4196,184,124
1773579096.5897617,21.5,30.4,0,-4196,184,124
1773579096.6101637,21.5,30.4,0,-4184,120,116
1773579096.6305013,21.5,30.4,0,-4184,120,116
1773579096.6536522,21.5,30.4,0,-4168,128,120
1773579096.6741846,21.5,30.4,0,-4168,128,120
1773579096.6945622,21.5,30.4,0,-4168,128,120
1773579096.7149134,21.5,30.4,0,-4192,168,128
1773579096.735516,21.5,30.4,0,-4192,168,128
1773579096.7557287,21.5,30.4,0,-4144,148,136
1773579096.7766435,21.5,30.4,0,-4144,148,136
1773579096.7971587,21.5,30.4,0,-4144,148,136
1773579096.8184526,21.5,30.4,0,-4164,136,116
1773579096.8387053,21.5,30.4,0,-4164,136,116
1773579096.859021,21.5,30.4,0,-4164,136,116
1773579096.8799255,21.5,30.4,0,-4168,120,152
1773579096.9004273,21.5,30.4,0,-4168,120,152
1773579096.920837,21.5,30.4,0,-4192,168,112
1773579096.9413228,21.5,30.4,0,-4192,168,112
1773579096.9640615,21.5,30.4,0,-4192,168,112
1773579096.9846544,21.5,30.4,0,-4172,112,112
1773579097.00538,21.5,30.4,0,-4172,112,112
1773579097.0259027,21.5,30.4,0,-4160,156,136
1773579097.0463002,21.5,30.4,0,-4160,156,136
1773579097.066656,21.5,30.4,0,-4160,156,136
1773579097.087717,21.5,30.4,0,-4188,156,124
1773579097.108373,21.5,30.4,0,-4188,156,124
1773579097.129112,21.5,30.4,0,-4192,124,128
1773579097.1502118,21.5,30.4,0,-4192,124,128
1773579097.1705801,21.5,30.4,0,-4192,124,128
1773579097.191353,21.5,30.4,0,-4160,136,156
1773579097.2119558,21.5,30.4,0,-4160,136,156
1773579097.2324016,21.5,30.4,0,-4164,180,160
1773579097.2526944,21.5,30.4,0,-4164,180,160
1773579097.2732348,21.5,30.4,0,-4164,180,160
1773579097.2937427,21.5,30.4,0,-4200,136,132
1773579097.3145432,21.5,30.4,0,-4200,136,132
1773579097.3349943,21.5,30.4,0,-4200,136,132
1773579097.3556347,21.5,30.4,0,-4176,116,108
1773579097.3762789,21.5,30.4,0,-4176,116,108
1773579097.3967948,21.5,30.4,0,-4136,148,152
1773579097.4171083,21.5,30.4,0,-4136,148,152
1773579097.4387455,21.5,30.4,0,-4136,148,152
1773579097.4590945,21.5,30.4,0,-4204,176,148
1773579097.479952,21.5,30.4,0,-4204,176,148
1773579097.5006413,21.5,30.4,0,-4168,112,104
1773579097.520865,21.5,30.4,0,-4168,112,104
1773579097.5415587,21.5,30.4,0,-4168,112,104
1773579097.56218,21.5,30.4,0,-4160,120,136
1773579097.5824416,21.5,30.4,0,-4160,120,136
1773579097.602745,21.5,30.4,0,-4160,120,136
1773579097.6234748,21.5,30.4,0,-4188,164,164
1773579097.6441789,21.5,30.4,0,-4188,164,164
1773579097.6649458,21.5,30.4,0,-4176,124,84
1773579097.685923,21.5,30.4,0,-4176,124,84
1773579097.7070546,21.5,30.4,0,-4176,124,84
1773579097.7275233,21.5,30.4,0,-4172,120,116
1773579097.747833,21.5,30.4,0,-4172,120,116
1773579097.7682207,21.5,30.4,0,-4188,180,152
1773579097.7886539,21.5,30.4,0,-4188,180,152
1773579097.8092246,21.5,30.4,0,-4188,180,152
1773579097.829893,21.5,30.4,0,-4216,132,168
1773579097.8504264,21.5,30.4,0,-4216,132,168
1773579097.8707945,21.5,30.4,0,-4152,124,84
1773579097.8917248,21.5,30.4,0,-4152,124,84
1773579097.9122226,21.5,30.4,0,-4152,124,84
1773579097.9330485,21.5,30.4,0,-4140,168,112
1773579097.9538908,21.5,30.4,0,-4140,168,112
1773579097.9746737,21.5,30.4,0,-4140,168,112
1773579097.9953535,21.5,30.4,0,-4188,164,132
1773579098.0160031,21.5,30.4,0,-4188,164,132
1773579098.0364025,21.5,30.4,0,-4192,116,96
1773579098.0569391,21.5,30.4,0,-4192,116,96
1773579098.0775135,21.5,30.4,0,-4192,116,96
1773579098.0989304,21.5,30.4,0,-4140,144,156
1773579098.119681,21.5,30.4,0,-4140,144,156
1773579098.1402807,21.5,30.4,0,-4140,144,156
1773579098.1607513,21.5,30.3,0,-4164,92,100
1773579098.1811962,21.5,30.3,0,-4164,92,100
1773579098.2024558,21.5,30.3,0,-4164,92,100
1773579098.222905,21.5,30.3,0,-4148,96,188
1773579098.2434049,21.5,30.3,0,-4148,96,188
1773579098.2638774,21.5,30.3,0,-4148,96,188
1773579098.2861621,21.5,30.3,0,-4212,212,128
1773579098.306681,21.5,30.3,0,-4212,212,128
1773579098.3271947,21.5,30.3,0,-4168,120,120
1773579098.3477888,21.5,30.3,0,-4168,120,120
1773579098.368728,21.5,30.3,0,-4168,120,120
1773579098.3893778,21.5,30.3,0,-4152,84,164
1773579098.4097612,21.5,30.3,0,-4152,84,164
1773579098.4308078,21.5,30.3,0,-4176,176,132
1773579098.451945,21.5,30.3,0,-4176,176,132
1773579098.4725697,21.5,30.3,0,-4176,176,132
1773579098.4932396,21.5,30.3,0,-4176,100,132
1773579098.5140128,21.5,30.3,0,-4176,100,132
1773579098.5349526,21.5,30.3,0,-4168,152,100
1773579098.5553284,21.5,30.3,0,-4168,152,100
1773579098.5772533,21.5,30.3,0,-4168,152,100
1773579098.5978143,21.5,30.3,0,-4188,148,184
1773579098.61907,21.5,30.3,0,-4188,148,184
1773579098.639941,21.5,30.3,0,-4188,176,120
1773579098.6604657,21.5,30.3,0,-4188,176,120
1773579098.680816,21.5,30.3,0,-4188,176,120
1773579098.7014556,21.5,30.3,0,-4160,124,100
1773579098.7219634,21.5,30.3,0,-4160,124,100
1773579098.7426543,21.5,30.3,0,-4160,124,100
1773579098.7631068,21.5,30.3,0,-4160,132,140
1773579098.7838354,21.5,30.3,0,-4160,132,140
1773579098.8043065,21.5,30.3,0,-4184,184,136
1773579098.8249145,21.5,30.3,0,-4184,184,136
1773579098.845393,21.5,30.3,0,-4184,184,136
1773579098.8659127,21.5,30.3,0,-4160,104,120
1773579098.8862574,21.5,30.3,0,-4160,104,120
1773579098.9067106,21.5,30.3,0,-4152,120,128
1773579098.927055,21.5,30.3,0,-4152,120,128
1773579098.9475915,21.5,30.3,0,-4152,120,128
1773579098.9692528,21.5,30.3,0,-4192,168,128
1773579098.9898283,21.5,30.3,0,-4192,168,128
1773579099.0106237,21.5,30.3,0,-4192,108,136
1773579099.0316005,21.5,30.3,0,-4192,108,136
1773579099.0528307,21.5,30.3,0,-4192,108,136
1773579099.073487,21.5,30.3,0,-4180,124,128
1773579099.0940394,21.5,30.3,0,-4180,124,128
1773579099.1147172,21.5,30.3,0,-4180,124,128
1773579099.13541,21.5,30.3,0,-4156,160,124
1773579099.1560256,21.5,30.3,0,-4156,160,124
1773579099.17679,21.5,30.3,0,-4184,168,108
1773579099.1974206,21.5,30.3,0,-4184,168,108
1773579099.218777,21.5,30.3,0,-4184,168,108
1773579099.239559,21.5,30.3,0,-4124,132,64
1773579099.261103,21.5,30.3,0,-4124,132,64
1773579099.2814467,21.5,30.3,0,-4156,88,172
1773579099.3021023,21.5,30.3,0,-4156,88,172
1773579099.3224642,21.5,30.3,0,-4156,88,172
1773579099.342981,21.5,30.3,0,-4208,212,104
1773579099.3635526,21.5,30.3,0,-4208,212,104
1773579099.3841417,21.5,30.3,0,-4172,120,120
1773579099.40486,21.5,30.3,0,-4172,120,120
1773579099.4255512,21.5,30.3,0,-4172,120,120
1773579099.4459743,21.5,30.3,0,-4144,120,160
1773579099.466679,21.5,30.3,0,-4144,120,160
1773579099.4871275,21.5,30.3,0,-4176,132,148
1773579099.507801,21.5,30.3,0,-4176,132,148
1773579099.5283997,21.5,30.3,0,-4176,132,148
1773579099.5487938,21.5,30.3,0,-4192,152,100
1773579099.569567,21.5,30.3,0,-4192,152,100
1773579099.5900567,21.5,30.3,0,-4192,152,100
1773579099.610667,21.5,30.3,0,-4152,112,92
1773579099.6318219,21.5,30.3,0,-4152,112,92
1773579099.6529129,21.5,30.3,0,-4164,120,132
1773579099.6735785,21.5,30.3,0,-4164,120,132
1773579099.6939316,21.5,30.3,0,-4164,120,132
1773579099.7144644,21.5,30.3,0,-4212,200,88
1773579099.7351308,21.5,30.3,0,-4212,200,88
1773579099.7556186,21.5,30.3,0,-4156,108,132
1773579099.7762861,21.5,30.3,0,-4156,108,132
1773579099.7969298,21.5,30.3,0,-4156,108,132
1773579099.8174837,21.5,30.3,0,-4140,116,148
1773579099.8379896,21.5,30.3,0,-4140,116,148
1773579099.8587537,21.5,30.3,0,-4184,156,180
1773579099.8795018,21.5,30.3,0,-4184,156,180
1773579099.900108,21.5,30.3,0,-4184,156,180
1773579099.9207451,21.5,30.3,0,-4196,68,108
1773579099.9414032,21.5,30.3,0,-4196,68,108
1773579099.9619873,21.5,30.3,0,-4196,68,108
1773579099.9827387,21.5,30.3,0,-4172,164,124
1773579100.0032053,21.5,30.3,0,-4172,164,124
1773579100.023585,21.5,30.3,0,-4180,124,160
1773579100.0443368,21.5,30.3,0,-4180,124,160
1773579100.0651095,21.5,30.3,0,-4180,124,160
1773579100.0859437,21.5,30.3,0,-4212,124,116
1773579100.1062846,21.5,30.3,0,-4212,124,116
1773579100.1267138,21.5,30.3,0,-4148,136,64
1773579100.1471848,21.5,30.3,0,-4148,136,64
1773579100.1691492,21.5,30.3,0,-4148,136,64
1773579100.1897645,21.5,30.3,0,-4148,136,64
1773579100.2101636,21.5,30.3,0,-4188,120,92
1773579100.2312021,21.5,30.3,0,-4188,120,92
1773579100.2529886,21.5,30.3,0,-4188,120,92
1773579100.273635,21.5,30.3,0,-4164,108,116
1773579100.294382,21.5,30.3,0,-4164,108,116
1773579100.3150518,21.5,30.3,0,-4176,152,104
1773579100.3359709,21.5,30.3,0,-4176,152,104
1773579100.3563108,21.5,30.3,0,-4176,152,104
1773579100.3771362,21.5,30.3,0,-4208,120,200
1773579100.3977625,21.5,30.3,0,-4208,120,200
1773579100.418324,21.5,30.3,0,-4204,104,140
1773579100.4386878,21.5,30.3,0,-4204,104,140
1773579100.4593613,21.5,30.3,0,-4204,104,140
1773579100.4798963,21.5,30.3,0,-4144,116,132
1773579100.5001364,21.5,30.3,0,-4144,116,132
1773579100.5207126,21.5,30.3,0,-4144,116,132
1773579100.541456,21.5,30.3,0,-4200,180,84
1773579100.5623739,21.5,30.3,0,-4200,180,84
1773579100.5827742,21.5,30.3,0,-4212,112,84
1773579100.6037962,21.5,30.3,0,-4212,112,84
1773579100.6247268,21.5,30.3,0,-4212,112,84
1773579100.6452224,21.5,30.3,0,-4192,88,152
1773579100.6656039,21.5,30.3,0,-4192,88,152
1773579100.6859396,21.5,30.3,0,-4148,232,120
1773579100.7067828,21.5,30.3,0,-4148,232,120
1773579100.7274356,21.5,30.3,0,-4148,232,120
1773579100.7481701,21.5,30.3,0,-4212,72,132
1773579100.7683904,21.5,30.3,0,-4212,72,132
1773579100.7886865,21.5,30.3,0,-4200,172,152
1773579100.8095083,21.5,30.3,0,-4200,172,152
1773579100.8299851,21.5,30.3,0,-4200,172,152
1773579100.850642,21.5,30.3,0,-4120,120,112
1773579100.8711452,21.5,30.3,0,-4120,120,112
1773579100.8914008,21.5,30.3,0,-4120,120,112
1773579100.9116898,21.5,30.3,0,-4220,188,156
1773579100.9322963,21.5,30.3,0,-4220,188,156
1773579100.9530268,21.5,30.3,0,-4180,20,96
1773579100.973506,21.5,30.3,0,-4180,20,96
1773579100.9939973,21.5,30.3,0,-4180,20,96
1773579101.014461,21.5,30.3,0,-4172,80,164
1773579101.0354729,21.5,30.3,0,-4172,80,164
1773579101.0556803,21.5,30.3,0,-4168,132,80
1773579101.07611,21.5,30.3,0,-4168,132,80
1773579101.0966146,21.5,30.3,0,-4168,132,80
1773579101.1176083,21.5,30.3,0,-4192,132,244
1773579101.1407325,21.5,30.3,0,-4192,132,244
1773579101.1609678,21.5,30.3,0,-4164,168,152
1773579101.181685,21.5,30.3,0,-4164,168,152
1773579101.2021387,21.5,30.3,0,-4164,168,152
1773579101.2226021,21.5,30.3,0,-4212,188,56
1773579101.2432673,21.5,30.3,0,-4212,188,56
1773579101.2636704,21.5,30.3,0,-4212,188,56
1773579101.284559,21.5,30.3,0,-4176,112,124
1773579101.3050935,21.5,30.3,0,-4176,112,124
1773579101.325386,21.5,30.3,0,-4192,152,60
1773579101.3460917,21.5,30.3,0,-4192,152,60
1773579101.3666804,21.5,30.3,0,-4192,152,60
1773579101.3870623,21.5,30.3,0,-4108,140,48
1773579101.40744,21.5,30.3,0,-4108,140,48
1773579101.4280932,21.5,30.3,0,-4200,268,176
1773579101.4485643,21.5,30.3,0,-4200,268,176
1773579101.469834,21.5,30.3,0,-4200,268,176
1773579101.4907,21.5,30.3,0,-4152,-100,-36
1773579101.5114322,21.5,30.3,0,-4152,-100,-36
1773579101.5320816,21.5,30.3,0,-4196,8,156
1773579101.5526974,21.5,30.3,0,-4196,8,156
1773579101.5735612,21.5,30.3,0,-4196,8,156
1773579101.5942135,21.5,30.3,0,-4148,176,32
1773579101.6154127,21.5,30.3,0,-4148,176,32
1773579101.6361907,21.5,30.3,0,-4100,68,252
1773579101.6580334,21.5,30.3,0,-4100,68,252
1773579101.6792984,21.5,30.3,0,-4100,68,252
1773579101.702383,21.5,30.3,0,-4196,252,292
1773579101.7231443,21.5,30.3,0,-4196,252,292
1773579101.7434785,21.5,30.3,0,-4100,-160,-48
1773579101.7646844,21.5,30.3,0,-4100,-160,-48
1773579101.7854364,21.5,30.3,0,-4100,-160,-48
1773579101.8061044,21.5,30.3,0,-4220,284,64
1773579101.8275006,21.5,30.3,0,-4220,284,64
1773579101.8477097,21.5,30.3,0,-4220,284,64
1773579101.8699024,21.5,30.3,0,-4200,52,324
1773579101.8905642,21.5,30.3,0,-4200,52,324
1773579101.9119732,21.5,30.3,0,-4216,200,124
1773579101.933543,21.5,30.3,0,-4216,200,124
1773579101.9543602,21.5,30.3,0,-4180,216,-80
1773579101.974893,21.5,30.3,0,-4180,216,-80
1773579101.9955516,21.5,30.3,0,-4180,216,-80
1773579102.0166795,21.5,30.3,0,-4176,208,48
1773579102.0372202,21.5,30.3,0,-4176,208,48
1773579102.057865,21.5,30.3,0,-4176,208,48
1773579102.0780852,21.5,30.3,0,-4220,144,196
1773579102.0984058,21.5,30.3,0,-4220,144,196
1773579102.1188636,21.5,30.3,0,-4136,224,200
1773579102.1395793,21.5,30.3,0,-4136,224,200
1773579102.160381,21.5,30.3,0,-4136,224,200
1773579102.181039,21.5,30.3,0,-4208,120,0
1773579102.2029316,21.5,30.3,0,-4208,120,0
1773579102.2236376,21.5,30.3,0,-4208,120,0
1773579102.2444124,21.5,30.3,0,-4208,120,0
1773579102.265288,21.5,30.3,0,-4152,288,168
1773579102.285706,21.5,30.3,0,-4152,288,168
1773579102.3064523,21.5,30.3,0,-4176,116,248
1773579102.327082,21.5,30.3,0,-4176,116,248
1773579102.34726,21.5,30.3,0,-4176,116,248
1773579102.3687134,21.5,30.3,0,-4180,148,28
1773579102.3891158,21.5,30.3,0,-4180,148,28
1773579102.4096167,21.5,30.3,0,-4160,144,-56
1773579102.4301417,21.5,30.3,0,-4160,144,-56
1773579102.4506016,21.5,30.3,0,-4160,144,-56
1773579102.471004,21.5,30.3,0,-4228,276,392
1773579102.4917223,21.5,30.3,0,-4228,276,392
1773579102.5124753,21.5,30.3,0,-4148,196,-308
1773579102.5330515,21.5,30.3,0,-4148,196,-308
1773579102.555069,21.5,30.3,0,-4148,196,-308
1773579102.576298,21.5,30.3,0,-4172,200,180
1773579102.5968041,21.5,30.3,0,-4172,200,180
1773579102.6173725,21.5,30.3,0,-4168,308,96
1773579102.6381967,21.5,30.3,0,-4168,308,96
1773579102.6586528,21.5,30.3,0,-4168,308,96
1773579102.6788352,21.5,30.3,0,-4208,216,364
1773579102.6989627,21.5,30.3,0,-4208,216,364
1773579102.7247086,21.5,30.3,0,-4208,216,364
1773579102.7452307,21.5,30.3,0,-4112,16,-56
1773579102.7676096,21.5,30.3,0,-4112,16,-56
1773579102.7897081,21.5,30.3,0,-4192,104,12
1773579102.8101888,21.5,30.3,0,-4192,104,12
1773579102.8309412,21.5,30.3,0,-4208,288,468
1773579102.8529446,21.5,30.3,0,-4208,288,468
1773579102.8737292,21.5,30.3,0,-4208,288,468
1773579102.8949244,21.5,30.3,0,-4096,440,-100
1773579102.9166517,21.5,30.3,0,-4096,440,-100
1773579102.936982,21.5,30.3,0,-4188,384,136
1773579102.9576232,21.5,30.3,0,-4188,384,136
1773579102.9786315,21.5,30.3,0,-4188,384,136
1773579102.99956,21.5,30.3,0,-4152,220,252
1773579103.0199134,21.5,30.3,0,-4152,220,252
1773579103.0403895,21.5,30.3,0,-4152,220,252
1773579103.06078,21.5,30.3,0,-3972,624,-200
1773579103.0814712,21.5,30.3,0,-3972,624,-200
1773579103.10193,21.5,30.3,0,-4200,284,292
1773579103.1225188,21.5,30.3,0,-4200,284,292
1773579103.1428952,21.5,30.3,0,-4200,284,292
1773579103.1641014,21.5,30.3,0,-4120,448,264
1773579103.185734,21.5,30.3,0,-4120,448,264
1773579103.2062063,21.5,30.3,0,-4088,324,-444
1773579103.2270377,21.5,30.3,0,-4088,324,-444
1773579103.2475264,21.5,30.3,0,-4088,324,-444
1773579103.26924,21.5,30.3,0,-4212,32,420
1773579103.2899373,21.5,30.3,0,-4212,32,420
1773579103.3103025,21.5,30.3,0,-4156,524,316
1773579103.3307679,21.5,30.3,0,-4156,524,316
1773579103.351454,21.5,30.3,0,-4156,524,316
1773579103.3718703,21.5,30.3,0,-4100,-872,-156
1773579103.3926618,21.5,30.3,0,-4100,-872,-156
1773579103.4129186,21.5,30.3,0,-4100,-872,-156
1773579103.4340568,21.5,30.3,0,-4120,184,432
1773579103.454654,21.5,30.3,0,-4120,184,432
1773579103.4752655,21.5,30.3,0,-4172,436,260
1773579103.4956372,21.5,30.3,0,-4172,436,260
1773579103.5168843,21.5,30.3,0,-4172,436,260
1773579103.537312,21.5,30.3,0,-4384,328,-152
1773579103.5581481,21.5,30.3,0,-4384,328,-152
1773579103.5790005,21.5,30.3,0,-4112,740,512
1773579103.5996652,21.5,30.3,0,-4112,740,512
1773579103.6202548,21.5,30.3,0,-4112,740,512
1773579103.6404183,21.5,30.3,0,-4212,-304,-60
1773579103.6607823,21.5,30.3,0,-4212,-304,-60
1773579103.6811182,21.5,30.3,0,-4104,-604,-152
1773579103.7018075,21.5,30.3,0,-4104,-604,-152
1773579103.7226117,21.5,30.3,0,-4104,-604,-152
1773579103.7431982,21.5,30.3,0,-4168,456,564
1773579103.7650058,21.5,30.3,0,-4168,456,564
1773579103.7862773,21.5,30.3,0,-4052,-32,-296
1773579103.8069437,21.5,30.3,0,-4052,-32,-296
1773579103.8274727,21.5,30.3,0,-4052,-32,-296
1773579103.8480034,21.5,30.3,0,-4160,432,448
1773579103.8687105,21.5,30.3,0,-4160,432,448
1773579103.8891518,21.5,30.3,0,-4160,432,448
1773579103.909349,21.5,30.3,0,-4076,180,4
1773579103.9298687,21.5,30.3,0,-4076,180,4
1773579103.9506307,21.5,30.3,0,-4412,-76,-164
1773579103.9710538,21.5,30.3,0,-4412,-76,-164
1773579103.9914715,21.5,30.3,0,-4412,-76,-164
1773579104.011984,21.5,30.3,0,-4300,720,556
1773579104.032701,21.5,30.3,0,-4300,720,556
1773579104.0533848,21.5,30.3,0,-4220,-572,-388
1773579104.0739105,21.5,30.3,0,-4220,-572,-388
1773579104.0945377,21.5,30.3,0,-4220,-572,-388
1773579104.1153164,21.5,30.3,0,-4244,216,432
1773579104.1357517,21.5,30.3,0,-4244,216,432
1773579104.1564512,21.5,30.3,0,-4244,216,432
1773579104.1768458,21.5,30.3,0,-4232,276,296
1773579104.1974912,21.5,30.3,0,-4232,276,296
1773579104.218248,21.5,30.3,0,-4348,-96,-116
1773579104.238578,21.5,30.3,0,-4348,-96,-116
1773579104.2591953,21.5,30.3,0,-4348,-96,-116
1773579104.279648,21.5,30.3,0,-4348,-96,-116
1773579104.3016593,21.5,30.3,0,-4224,544,292
1773579104.3223977,21.5,30.3,0,-4224,544,292
1773579104.343215,21.5,30.3,0,-4212,128,-4
1773579104.3637874,21.5,30.3,0,-4212,128,-4
1773579104.385967,21.5,30.3,0,-4212,128,-4
1773579104.4062355,21.5,30.3,0,-4232,672,608
1773579104.4271805,21.5,30.3,0,-4232,672,608
1773579104.4474678,21.5,30.3,0,-4144,264,-304
1773579104.4688506,21.5,30.3,0,-4144,264,-304
1773579104.4908917,21.5,30.3,0,-4144,264,-304
1773579104.5112784,21.5,30.3,0,-4020,288,68
1773579104.5319197,21.5,30.3,0,-4020,288,68
1773579104.5525863,21.5,30.3,0,-4020,288,68
1773579104.5730999,21.5,30.3,0,-4280,768,532
1773579104.5937135,21.5,30.3,0,-4280,768,532
1773579104.6147206,21.5,30.3,0,-3956,52,-96
1773579104.6352313,21.5,30.3,0,-3956,52,-96
1773579104.6576738,21.5,30.3,0,-3956,52,-96
1773579104.67828,21.5,30.3,0,-4140,504,388
1773579104.6989107,21.5,30.3,0,-4140,504,388
1773579104.7192452,21.5,30.3,0,-4188,232,136
1773579104.7400408,21.5,30.3,0,-4188,232,136
1773579104.7605114,21.5,30.3,0,-4188,232,136
1773579104.7809846,21.5,30.3,0,-4204,-408,160
1773579104.8014994,21.5,30.3,0,-4204,-408,160
1773579104.8221898,21.5,30.3,0,-4176,808,448
1773579104.8425856,21.5,30.3,0,-4176,808,448
1773579104.8631911,21.5,30.3,0,-4176,808,448
1773579104.884206,21.5,30.3,0,-4028,-1012,-248
1773579104.9049716,21.5,30.3,0,-4028,-1012,-248
1773579104.9253318,21.5,30.3,0,-4028,-1012,-248
1773579104.9464767,21.5,30.3,0,-4192,260,408
1773579104.9682188,21.5,30.3,0,-4192,260,408
1773579104.9890807,21.5,30.3,0,-4164,436,-408
1773579105.0106175,21.5,30.3,0,-4164,436,-408
1773579105.0311031,21.5,30.3,0,-4164,436,-408
1773579105.0523353,21.5,30.3,0,-4008,188,-44
1773579105.0727606,21.5,30.3,0,-4008,188,-44
1773579105.0952122,21.5,30.3,0,-4176,572,508
1773579105.1166072,21.5,30.3,0,-4176,572,508
1773579105.1370292,21.5,30.3,0,-4176,572,508
1773579105.1577692,21.5,30.3,0,-4036,-352,-212
1773579105.17874,21.5,30.3,0,-4036,-352,-212
1773579105.200461,21.5,30.3,0,-4316,352,372
1773579105.2208674,21.5,30.3,0,-4316,352,372
1773579105.241962,21.5,30.3,0,-4316,352,372
1773579105.2628782,21.5,30.3,0,-4288,432,380
1773579105.2835236,21.5,30.3,0,-4288,432,380
1773579105.3044713,21.5,30.3,0,-4052,172,-80
1773579105.3250356,21.5,30.3,0,-4052,172,-80
1773579105.3457706,21.5,30.3,0,-4052,172,-80
1773579105.3667228,21.5,30.3,0,-4188,572,476
1773579105.3873198,21.5,30.3,0,-4188,572,476
1773579105.4078856,21.5,30.3,0,-3952,-64,-300
1773579105.4290214,21.5,30.3,0,-3952,-64,-300
1773579105.4505017,21.5,30.3,0,-3952,-64,-300
1773579105.4709396,21.5,30.3,0,-4080,-692,-36
1773579105.4913397,21.5,30.3,0,-4080,-692,-36
1773579105.51245,21.5,30.3,0,-4168,560,568
1773579105.5334418,21.5,30.3,0,-4168,560,568
1773579105.5539677,21.5,30.3,0,-4168,560,568
1773579105.5746846,21.5,30.3,0,-4004,156,-412
1773579105.5957856,21.5,30.3,0,-4004,156,-412
1773579105.6161723,21.5,30.3,0,-4220,636,328
1773579105.6388018,21.5,30.3,0,-4220,636,328
1773579105.659435,21.5,30.3,0,-4220,636,328
1773579105.6799834,21.5,30.3,0,-4180,300,404
1773579105.7006726,21.5,30.3,0,-4180,300,404
1773579105.7212236,21.5,30.3,0,-4180,300,404
1773579105.741928,21.5,30.3,0,-4020,240,-100
1773579105.7621891,21.5,30.3,0,-4020,240,-100
1773579105.7825055,21.5,30.3,0,-4156,384,392
1773579105.8028772,21.5,30.3,0,-4156,384,392
1773579105.8235397,21.5,30.3,0,-4156,384,392
1773579105.8442717,21.5,30.3,0,-4080,-384,-980
1773579105.8645766,21.5,30.3,0,-4080,-384,-980
1773579105.8849015,21.5,30.3,0,-4064,-408,-24
1773579105.9057333,21.5,30.3,0,-4064,-408,-24
1773579105.9263692,21.5,30.3,0,-4064,-408,-24
1773579105.9469674,21.5,30.3,0,-4332,804,524
1773579105.9672773,21.5,30.3,0,-4332,804,524
1773579105.9874926,21.5,30.3,0,-4044,-948,-144
1773579106.0081353,21.5,30.3,0,-4044,-948,-144
1773579106.028757,21.5,30.3,0,-4044,-948,-144
1773579106.0491786,21.5,30.3,0,-4236,-44,216
1773579106.070448,21.5,30.3,0,-4236,-44,216
1773579106.0910845,21.5,30.3,0,-4236,-44,216
1773579106.1118023,21.5,30.3,0,-4252,540,380
1773579106.1328192,21.5,30.3,0,-4252,540,380
1773579106.1534152,21.5,30.3,0,-4004,-1084,-100
1773579106.1739042,21.5,30.3,0,-4004,-1084,-100
1773579106.194786,21.5,30.3,0,-4004,-1084,-100
1773579106.2151296,21.5,30.3,0,-4236,212,404
1773579106.235558,21.5,30.3,0,-4236,212,404
1773579106.2562637,21.5,30.3,0,-4096,284,240
1773579106.277177,21.5,30.3,0,-4096,284,240
1773579106.2978415,21.5,30.3,0,-4096,284,240
1773579106.3180509,21.5,30.3,0,-4096,284,240
1773579106.3385015,21.6,30.2,0,-4216,176,104
1773579106.3588796,21.6,30.2,0,-4216,176,104
1773579106.379487,21.6,30.2,0,-4216,176,104
1773579106.4000287,21.6,30.2,0,-4260,388,360
1773579106.420705,21.6,30.2,0,-4260,388,360
1773579106.4411612,21.6,30.2,0,-4120,232,-260
1773579106.461737,21.6,30.2,0,-4120,232,-260
1773579106.482235,21.6,30.2,0,-4120,232,-260
1773579106.5028062,21.6,30.2,0,-4224,276,296
1773579106.523389,21.6,30.2,0,-4224,276,296
1773579106.5437944,21.6,30.2,0,-4224,276,416
1773579106.5644977,21.6,30.2,0,-4224,276,416
1773579106.5854146,21.6,30.2,0,-4224,276,416
1773579106.6057718,21.6,30.2,0,-4108,200,-76
1773579106.6260543,21.6,30.2,0,-4108,200,-76
1773579106.646664,21.6,30.2,0,-4108,200,-76
1773579106.6670594,21.6,30.2,0,-4204,76,228
1773579106.6876466,21.6,30.2,0,-4204,76,228
1773579106.7082834,21.6,30.2,0,-4176,216,192
1773579106.7285671,21.6,30.2,0,-4176,216,192
1773579106.7489746,21.6,30.2,0,-4176,216,192
1773579106.7692335,21.6,30.2,0,-4244,0,192
1773579106.7897077,21.6,30.2,0,-4244,0,192
1773579106.8102982,21.6,30.2,0,-4024,716,344
1773579106.8305395,21.6,30.2,0,-4024,716,344
1773579106.8514981,21.6,30.2,0,-4024,716,344
1773579106.872245,21.6,30.2,0,-4316,248,116
1773579106.8927977,21.6,30.2,0,-4316,248,116
1773579106.9133592,21.6,30.2,0,-4316,248,116
1773579106.9338274,21.6,30.2,0,-4252,112,-80
1773579106.954516,21.6,30.2,0,-4252,112,-80
1773579106.9749277,21.6,30.2,0,-4268,428,536
1773579106.9964502,21.6,30.2,0,-4268,428,536
1773579107.0170164,21.6,30.2,0,-4268,428,536
1773579107.0372179,21.6,30.2,0,-4012,-496,-808
1773579107.0577204,21.6,30.2,0,-4012,-496,-808
1773579107.0782368,21.6,30.2,0,-4108,-548,40
1773579107.0987875,21.6,30.2,0,-4108,-548,40
1773579107.1193624,21.6,30.2,0,-4108,-548,40
1773579107.1396508,21.6,30.2,0,-4280,732,600
1773579107.1602335,21.6,30.2,0,-4280,732,600
1773579107.1805289,21.6,30.2,0,-4252,244,448
1773579107.2013454,21.6,30.2,0,-4252,244,448
1773579107.2219155,21.6,30.2,0,-4252,244,448
1773579107.2426965,21.6,30.2,0,-4084,-208,-108
1773579107.263318,21.6,30.2,0,-4084,-208,-108
1773579107.283729,21.6,30.2,0,-4084,-208,-108
1773579107.3046787,21.6,30.2,0,-4288,596,396
1773579107.325403,21.6,30.2,0,-4288,596,396
1773579107.3461058,21.6,30.2,0,-4016,68,-244
1773579107.366661,21.6,30.2,0,-4016,68,-244
1773579107.3875895,21.6,30.2,0,-4016,68,-244
1773579107.4083087,21.6,30.2,0,-4056,72,140
1773579107.4288614,21.6,30.2,0,-4056,72,140
1773579107.449152,21.6,30.2,0,-4232,280,400
1773579107.469574,21.6,30.2,0,-4232,280,400
1773579107.4900043,21.6,30.2,0,-4232,280,400
1773579107.5107496,21.6,30.2,0,-4084,-124,-500
1773579107.5311034,21.6,30.2,0,-4084,-124,-500
1773579107.5517354,21.6,30.2,0,-4084,-124,-500
1773579107.5723927,21.6,30.2,0,-4100,376,36
1773579107.5929458,21.6,30.2,0,-4100,376,36
1773579107.6135294,21.6,30.2,0,-4216,180,404
1773579107.6342282,21.6,30.2,0,-4216,180,404
1773579107.6544883,21.6,30.2,0,-4216,180,404
1773579107.6748538,21.6,30.2,0,-4028,-348,-332
1773579107.6953976,21.6,30.2,0,-4028,-348,-332
1773579107.715758,21.6,30.2,0,-4064,284,84
1773579107.7367465,21.6,30.2,0,-4064,284,84
1773579107.7571707,21.6,30.2,0,-4064,284,84
1773579107.778066,21.6,30.2,0,-4216,292,388
1773579107.79863,21.6,30.2,0,-4216,292,388
1773579107.819026,21.6,30.2,0,-4152,-140,-428
1773579107.8397694,21.6,30.2,0,-4152,-140,-428
1773579107.8605685,21.6,30.2,0,-4152,-140,-428
1773579107.881135,21.6,30.2,0,-4052,212,8
1773579107.9013433,21.6,30.2,0,-4052,212,8
1773579107.9218647,21.6,30.2,0,-4052,212,8
1773579107.942682,21.6,30.2,0,-4304,320,364
1773579107.963359,21.6,30.2,0,-4304,320,364
1773579107.9836857,21.6,30.2,0,-4016,136,-136
1773579108.0044463,21.6,30.2,0,-4016,136,-136
1773579108.0251083,21.6,30.2,0,-4016,136,-136
1773579108.0459986,21.6,30.2,0,-4044,-52,-104
1773579108.0668228,21.6,30.2,0,-4044,-52,-104
1773579108.087115,21.6,30.2,0,-4368,264,480
1773579108.107696,21.6,30.2,0,-4368,264,480
1773579108.1284509,21.6,30.2,0,-4368,264,480
1773579108.1489646,21.6,30.2,0,-4032,348,220
1773579108.169808,21.6,30.2,0,-4032,348,220
1773579108.1906176,21.6,30.2,0,-4144,76,-48
1773579108.2113883,21.6,30.2,0,-4144,76,-48
1773579108.2318792,21.6,30.2,0,-4144,76,-48
1773579108.2523499,21.6,30.2,0,-4200,320,464
1773579108.2726576,21.6,30.2,0,-4200,320,464
1773579108.293322,21.6,30.2,0,-4200,320,464
1773579108.313833,21.6,30.2,0,-4176,-396,-528
1773579108.334151,21.6,30.2,0,-4176,-396,-528
1773579108.354976,21.6,30.2,0,-4176,-396,-528
1773579108.3753767,21.6,30.2,0,-4128,84,188
1773579108.3957095,21.6,30.2,0,-4128,84,188
1773579108.416455,21.6,30.2,0,-4128,84,188
1773579108.437157,21.6,30.2,0,-4104,256,476
1773579108.4580436,21.6,30.2,0,-4104,256,476
1773579108.4785292,21.6,30.2,0,-4104,256,476
1773579108.498934,21.6,30.2,0,-4104,556,-416
1773579108.5192335,21.6,30.2,0,-4104,556,-416
1773579108.539916,21.6,30.2,0,-4208,396,168
1773579108.5607226,21.6,30.2,0,-4208,396,168
1773579108.5809515,21.6,30.2,0,-4208,396,168
1773579108.6014194,21.6,30.2,0,-4152,316,416
1773579108.622088,21.6,30.2,0,-4152,316,416
1773579108.6425204,21.6,30.2,0,-4112,-336,-300
1773579108.6628413,21.6,30.2,0,-4112,-336,-300
1773579108.6835577,21.6,30.2,0,-4112,-336,-300
1773579108.7042642,21.6,30.2,0,-4056,-244,156
1773579108.7247057,21.6,30.2,0,-4056,-244,156
1773579108.7454052,21.6,30.2,0,-4272,284,504
1773579108.766211,21.6,30.2,0,-4272,284,504
1773579108.7868075,21.6,30.2,0,-4272,284,504
1773579108.8072805,21.6,30.2,0,-4136,-316,40
1773579108.8277311,21.6,30.2,0,-4136,-316,40
1773579108.8484924,21.6,30.2,0,-4136,-316,40
1773579108.8712642,21.6,30.2,0,-4244,-316,100
1773579108.8923497,21.6,30.2,0,-4244,-316,100
1773579108.9127693,21.6,30.2,0,-4152,280,372
1773579108.9331708,21.6,30.2,0,-4152,280,372
1773579108.9534533,21.6,30.2,0,-4152,280,372
1773579108.9738414,21.6,30.2,0,-4172,92,164
1773579108.9945333,21.6,30.2,0,-4172,92,164
1773579109.015012,21.6,30.2,0,-4144,512,76
1773579109.035316,21.6,30.2,0,-4144,512,76
1773579109.0560713,21.6,30.2,0,-4144,512,76
1773579109.07666,21.6,30.2,0,-4116,488,92
1773579109.097401,21.6,30.2,0,-4116,488,92
1773579109.1178417,21.6,30.2,0,-4224,136,384
1773579109.1385946,21.6,30.2,0,-4224,136,384
1773579109.1594553,21.6,30.2,0,-4224,136,384
1773579109.1798592,21.6,30.2,0,-3992,236,-36
1773579109.201351,21.6,30.2,0,-3992,236,-36
1773579109.2220733,21.6,30.2,0,-3992,236,-36
1773579109.2424955,21.6,30.2,0,-4228,200,-4
1773579109.2629864,21.6,30.2,0,-4228,200,-4
1773579109.283413,21.6,30.2,0,-4068,168,408
1773579109.3041832,21.6,30.2,0,-4068,168,408
1773579109.3246763,21.6,30.2,0,-4068,168,408
1773579109.3449743,21.6,30.2,0,-3860,168,4
1773579109.3656163,21.6,30.2,0,-3860,168,4
1773579109.3862991,21.6,30.2,0,-4168,228,160
1773579109.406855,21.6,30.2,0,-4168,228,160
1773579109.4272382,21.6,30.2,0,-4168,228,160
1773579109.4475446,21.6,30.2,0,-4296,512,372
1773579109.4679286,21.6,30.2,0,-4296,512,372
1773579109.4884908,21.6,30.2,0,-4116,-412,-672
1773579109.5088239,21.6,30.2,0,-4116,-412,-672
1773579109.52929,21.6,30.2,0,-4116,-412,-672
1773579109.5498874,21.6,30.2,0,-4276,-308,96
1773579109.5702646,21.6,30.2,0,-4276,-308,96
1773579109.5905354,21.6,30.2,0,-4276,-308,96
1773579109.6110802,21.6,30.2,0,-4168,396,176
1773579109.63168,21.6,30.2,0,-4168,396,176
1773579109.6524813,21.6,30.2,0,-4188,64,288
1773579109.6732354,21.6,30.2,0,-4188,64,288
1773579109.6939437,21.6,30.2,0,-4188,64,288
1773579109.714303,21.6,30.2,0,-4032,268,-24
1773579109.7351882,21.6,30.2,0,-4032,268,-24
1773579109.756009,21.6,30.2,0,-4136,140,-100
1773579109.7763298,21.6,30.2,0,-4136,140,-100
1773579109.7972224,21.6,30.2,0,-4136,140,-100
1773579109.8180091,21.6,30.2,0,-4104,248,324
1773579109.8383117,21.6,30.2,0,-4104,248,324
1773579109.859041,21.6,30.2,0,-4104,248,324
1773579109.8796031,21.6,30.2,0,-4148,-32,-92
1773579109.9002926,21.6,30.2,0,-4148,-32,-92
1773579109.9208674,21.6,30.2,0,-4228,-112,208
1773579109.9414577,21.6,30.2,0,-4228,-112,208
1773579109.96221,21.6,30.2,0,-4228,-112,208
1773579109.9830332,21.6,30.2,0,-4224,348,264
1773579110.003957,21.6,30.2,0,-4224,348,264
1773579110.0249188,21.6,30.2,0,-4168,-4,148
1773579110.0458338,21.6,30.2,0,-4168,-4,148
1773579110.0661712,21.6,30.2,0,-4168,-4,148
1773579110.0869176,21.6,30.2,0,-4096,688,-8
1773579110.1074817,21.6,30.2,0,-4096,688,-8
1773579110.1278975,21.6,30.2,0,-4208,156,0
1773579110.1481738,21.6,30.2,0,-4208,156,0
1773579110.168526,21.6,30.2,0,-4208,156,0
1773579110.1896617,21.6,30.2,0,-4124,160,352
1773579110.2104745,21.6,30.2,0,-4124,160,352
1773579110.2308288,21.6,30.2,0,-4124,160,352
1773579110.2512586,21.6,30.2,0,-4056,420,-272
1773579110.2717206,21.6,30.2,0,-4056,420,-272
1773579110.2925088,21.6,30.2,0,-4144,324,4
1773579110.3132038,21.6,30.2,0,-4144,324,4
1773579110.3339207,21.6,30.2,0,-4144,324,4
1773579110.3544245,21.6,30.2,0,-4224,428,292
1773579110.3750546,21.6,30.2,0,-4224,428,292
1773579110.3955781,21.6,30.2,0,-4224,428,292
1773579110.416107,21.6,30.2,0,-3948,440,-140
1773579110.4372776,21.6,30.2,0,-3948,440,-140
1773579110.4579456,21.6,30.2,0,-3948,440,-140
1773579110.4782066,21.6,30.2,0,-4116,176,168
1773579110.4985077,21.6,30.2,0,-4116,176,168
1773579110.5188556,21.6,30.2,0,-4116,176,168
1773579110.539389,21.6,30.2,0,-4212,440,316
1773579110.5603955,21.6,30.2,0,-4212,440,316
1773579110.5808785,21.6,30.2,0,-4172,116,156
1773579110.6015227,21.6,30.2,0,-4172,116,156
1773579110.6220074,21.6,30.2,0,-4172,116,156
1773579110.6425147,21.6,30.2,0,-4212,96,128
1773579110.6630237,21.6,30.2,0,-4212,96,128
1773579110.6832726,21.6,30.2,0,-4108,168,-112
1773579110.704003,21.6,30.2,0,-4108,168,-112
1773579110.724687,21.6,30.2,0,-4108,168,-112
1773579110.745395,21.6,30.2,0,-4216,272,428
1773579110.7660954,21.6,30.2,0,-4216,272,428
1773579110.7866158,21.6,30.2,0,-4216,272,428
1773579110.8072772,21.6,30.2,0,-4192,200,116
1773579110.82798,21.6,30.2,0,-4192,200,116
1773579110.84829,21.6,30.2,0,-4172,36,192
1773579110.868816,21.6,30.2,0,-4172,36,192
1773579110.8890991,21.6,30.2,0,-4172,36,192
1773579110.9098806,21.6,30.2,0,-4168,304,160
1773579110.9306018,21.6,30.2,0,-4168,304,160
1773579110.9516742,21.6,30.2,0,-4204,236,196
1773579110.972394,21.6,30.2,0,-4204,236,196
1773579110.993199,21.6,30.2,0,-4204,236,196
1773579111.0138292,21.6,30.2,0,-4148,-296,-48
1773579111.0350533,21.6,30.2,0,-4148,-296,-48
1773579111.0556993,21.6,30.2,0,-4196,76,52
1773579111.076809,21.6,30.2,0,-4196,76,52
1773579111.0974422,21.6,30.2,0,-4196,76,52
1773579111.1180062,21.6,30.2,0,-4224,220,344
1773579111.1382554,21.6,30.2,0,-4224,220,344
1773579111.1588547,21.6,30.2,0,-4224,220,344
1773579111.1794953,21.6,30.2,0,-4188,164,104
1773579111.1999784,21.6,30.2,0,-4188,164,104
1773579111.2205212,21.6,30.2,0,-4220,100,128
1773579111.2409534,21.6,30.2,0,-4220,100,128
1773579111.2617323,21.6,30.2,0,-4220,100,128
1773579111.2821658,21.6,30.2,0,-4140,136,-40
1773579111.3027914,21.6,30.2,0,-4140,136,-40
1773579111.3233948,21.6,30.2,0,-4160,232,280
1773579111.343704,21.6,30.2,0,-4160,232,280
1773579111.3640316,21.6,30.2,0,-4160,232,280
1773579111.3848846,21.6,30.2,0,-4164,76,36
1773579111.4054294,21.6,30.2,0,-4164,76,36
1773579111.4258032,21.6,30.2,0,-4188,-132,200
1773579111.4461422,21.6,30.2,0,-4188,-132,200
1773579111.4668891,21.6,30.2,0,-4188,-132,200
1773579111.487652,21.6,30.2,0,-4184,292,60
1773579111.5083718,21.6,30.2,0,-4184,292,60
1773579111.5288973,21.6,30.2,0,-4184,292,60
1773579111.5492368,21.6,30.2,0,-4180,80,192
1773579111.569906,21.6,30.2,0,-4180,80,192
1773579111.5903177,21.6,30.2,0,-4204,116,212
1773579111.6108618,21.6,30.2,0,-4204,116,212
1773579111.6317697,21.6,30.2,0,-4204,116,212
1773579111.6522527,21.6,30.2,0,-4116,136,120
1773579111.6726773,21.6,30.2,0,-4116,136,120
1773579111.6931932,21.6,30.2,0,-4204,344,192
1773579111.713723,21.6,30.2,0,-4204,344,192
1773579111.7347338,21.6,30.2,0,-4204,344,192
1773579111.7555506,21.6,30.2,0,-4192,140,148
1773579111.7761931,21.6,30.2,0,-4192,140,148
1773579111.7966866,21.6,30.2,0,-4168,76,152
1773579111.8181803,21.6,30.2,0,-4168,76,152
1773579111.8389251,21.6,30.2,0,-4168,76,152
1773579111.859506,21.6,30.2,0,-4156,76,72
1773579111.8800526,21.6,30.2,0,-4156,76,72
1773579111.900644,21.6,30.2,0,-4156,76,72
1773579111.9215572,21.6,30.2,0,-4188,200,268
1773579111.9422328,21.6,30.2,0,-4188,200,268
1773579111.9630995,21.6,30.2,0,-4180,88,160
1773579111.983906,21.6,30.2,0,-4180,88,160
1773579112.0044646,21.6,30.2,0,-4180,88,160
1773579112.0251946,21.6,30.2,0,-4196,120,52
1773579112.04598,21.6,30.2,0,-4196,120,52
1773579112.0663178,21.6,30.2,0,-4188,140,44
1773579112.086841,21.6,30.2,0,-4188,140,44
1773579112.107345,21.6,30.2,0,-4188,140,44
1773579112.1279,21.6,30.2,0,-4188,132,292
1773579112.1483834,21.6,30.2,0,-4188,132,292
1773579112.1693513,21.6,30.2,0,-4188,132,292
1773579112.1903977,21.6,30.2,0,-4108,60,152
1773579112.2110517,21.6,30.2,0,-4108,60,152
1773579112.2316258,21.6,30.2,0,-4176,176,64
1773579112.2520852,21.6,30.2,0,-4176,176,64
1773579112.2726893,21.6,30.2,0,-4176,176,64
1773579112.2931771,21.6,30.2,0,-4156,100,64
1773579112.3139436,21.6,30.2,0,-4156,100,64
1773579112.3347507,21.6,30.2,0,-4200,164,248
1773579112.3549633,21.6,30.2,0,-4200,164,248
1773579112.375436,21.6,30.2,0,-4200,164,248
1773579112.3963258,21.6,30.2,0,-4212,140,72
1773579112.4183133,21.6,30.2,0,-4212,140,72
1773579112.4386096,21.6,30.2,0,-4212,140,72
1773579112.459613,21.6,30.2,0,-4124,60,52
1773579112.4802494,21.6,30.2,0,-4124,60,52
1773579112.5008464,21.6,30.2,0,-4124,60,52
1773579112.5214198,21.6,30.2,0,-4176,200,52
1773579112.5420508,21.6,30.2,0,-4176,200,52
1773579112.5626996,21.6,30.2,0,-4176,200,52
1773579112.5830038,21.6,30.2,0,-4220,28,176
1773579112.6034935,21.6,30.2,0,-4220,28,176
1773579112.6237586,21.6,30.2,0,-4164,180,220
1773579112.6444073,21.6,30.2,0,-4164,180,220
1773579112.6647704,21.6,30.2,0,-4164,180,220
1773579112.6849403,21.6,30.2,0,-4180,132,72
1773579112.7053578,21.6,30.2,0,-4180,132,72
1773579112.7258599,21.6,30.2,0,-4192,140,84
1773579112.7462468,21.6,30.2,0,-4192,140,84
1773579112.7667685,21.6,30.2,0,-4192,140,84
1773579112.7871242,21.6,30.2,0,-4192,52,176
1773579112.8077435,21.6,30.2,0,-4192,52,176
1773579112.8282447,21.6,30.2,0,-4192,52,176
1773579112.8485742,21.6,30.2,0,-4172,204,180
1773579112.8692343,21.6,30.2,0,-4172,204,180
1773579112.8894944,21.6,30.2,0,-4228,132,32
1773579112.910347,21.6,30.2,0,-4228,132,32
1773579112.9307952,21.6,30.2,0,-4228,132,32
1773579112.951651,21.6,30.2,0,-4200,76,140
1773579112.971984,21.6,30.2,0,-4200,76,140
1773579112.992534,21.6,30.2,0,-4128,116,112
1773579113.012983,21.6,30.2,0,-4128,116,112
1773579113.0339825,21.6,30.2,0,-4128,116,112
1773579113.054667,21.6,30.2,0,-4208,212,120
1773579113.075174,21.6,30.2,0,-4208,212,120
1773579113.0955825,21.6,30.2,0,-4124,68,28
1773579113.1161673,21.6,30.2,0,-4124,68,28
1773579113.136394,21.6,30.2,0,-4124,68,28
1773579113.156986,21.6,30.2,0,-4148,132,144
1773579113.1774135,21.6,30.2,0,-4148,132,144
1773579113.1979058,21.6,30.2,0,-4148,132,144
1773579113.2185092,21.6,30.2,0,-4208,172,132
1773579113.239199,21.6,30.2,0,-4208,172,132
1773579113.2598376,21.6,30.2,0,-4156,148,132
1773579113.2801669,21.6,30.2,0,-4156,148,132
1773579113.3007278,21.6,30.2,0,-4156,148,132
1773579113.3211553,21.6,30.2,0,-4164,160,184
1773579113.341874,21.6,30.2,0,-4164,160,184
1773579113.3624148,21.6,30.2,0,-4124,112,60
1773579113.3830032,21.6,30.2,0,-4124,112,60
1773579113.4035969,21.6,30.2,0,-4124,112,60
1773579113.4240828,21.6,30.2,0,-4204,280,80
1773579113.4447837,21.6,30.2,0,-4204,280,80
1773579113.4652338,21.6,30.2,0,-4204,280,80
1773579113.485807,21.6,30.2,0,-4164,60,204
1773579113.5062084,21.6,30.2,0,-4164,60,204
1773579113.5265756,21.6,30.2,0,-4236,136,240
1773579113.546944,21.6,30.2,0,-4236,136,240
1773579113.5682058,21.6,30.2,0,-4236,136,240
1773579113.5886192,21.6,30.2,0,-4184,140,36
1773579113.609201,21.6,30.2,0,-4184,140,36
1773579113.6297793,21.6,30.2,0,-4172,132,168
1773579113.6505938,21.6,30.2,0,-4172,132,168
1773579113.6712506,21.6,30.2,0,-4172,132,168
1773579113.6917894,21.6,30.2,0,-4200,68,132
1773579113.7123158,21.6,30.2,0,-4200,68,132
1773579113.7330978,21.6,30.2,0,-4200,68,132
1773579113.7533486,21.6,30.2,0,-4208,204,112
1773579113.7739394,21.6,30.2,0,-4208,204,112
1773579113.7943473,21.6,30.2,0,-4180,136,172
1773579113.8166904,21.6,30.2,0,-4180,136,172
1773579113.8371832,21.6,30.2,0,-4180,136,172
1773579113.8578458,21.6,30.2,0,-4152,48,148
1773579113.8782792,21.6,30.2,0,-4152,48,148
1773579113.898513,21.6,30.2,0,-4188,156,124
1773579113.9188695,21.6,30.2,0,-4188,156,124
1773579113.9397037,21.6,30.2,0,-4188,156,124
1773579113.960347,21.6,30.2,0,-4192,116,132
1773579113.980714,21.6,30.2,0,-4192,116,132
1773579114.0017347,21.6,30.2,0,-4180,252,192
1773579114.0223339,21.6,30.2,0,-4180,252,192
1773579114.0427675,21.6,30.2,0,-4180,252,192
1773579114.0630598,21.6,30.2,0,-4184,92,40
1773579114.0834775,21.6,30.2,0,-4184,92,40
1773579114.1038551,21.6,30.2,0,-4184,92,40
1773579114.1240957,21.6,30.2,0,-4180,156,120
1773579114.1443374,21.6,30.2,0,-4180,156,120
1773579114.1650944,21.6,30.2,0,-4204,184,108
1773579114.1855395,21.6,30.2,0,-4204,184,108
1773579114.2057507,21.6,30.2,0,-4204,184,108
1773579114.2262783,21.6,30.2,0,-4188,88,160
1773579114.2472813,21.6,30.2,0,-4188,88,160
1773579114.2693076,21.6,30.2,0,-4184,160,240
1773579114.2900448,21.6,30.2,0,-4184,160,240
1773579114.3105128,21.6,30.2,0,-4184,160,240
1773579114.3313048,21.6,30.2,0,-4136,132,8
1773579114.3518927,21.6,30.2,0,-4136,132,8
1773579114.3723946,21.6,30.2,0,-4180,180,56
1773579114.3929322,21.6,30.2,0,-4180,180,56
1773579114.4135435,21.6,30.2,0,-4180,180,56
1773579114.4338524,21.6,30.2,0,-4144,108,204
1773579114.4543557,21.6,30.2,0,-4144,108,204
1773579114.474705,21.6,30.2,0,-4144,108,204
1773579114.4950473,21.6,30.2,0,-4144,108,204
1773579114.5157282,21.6,30.2,0,-4252,80,308
1773579114.5366137,21.6,30.2,0,-4252,80,308
1773579114.5581043,21.6,30.2,0,-4176,136,44
1773579114.5784934,21.6,30.2,0,-4176,136,44
1773579114.5988398,21.6,30.2,0,-4176,136,44
1773579114.6191332,21.6,30.2,0,-4208,220,100
1773579114.6397412,21.6,30.2,0,-4208,220,100
1773579114.6602926,21.6,30.2,0,-4216,172,156
1773579114.6806607,21.6,30.2,0,-4216,172,156
1773579114.7015312,21.6,30.2,0,-4216,172,156
1773579114.722046,21.6,30.2,0,-4172,156,112
1773579114.7424762,21.6,30.2,0,-4172,156,112
1773579114.7630734,21.6,30.2,0,-4172,156,112
1773579114.783588,21.6,30.2,0,-4168,192,176
1773579114.8039608,21.6,30.2,0,-4168,192,176
1773579114.8244464,21.6,30.2,0,-4208,20,32
1773579114.8450727,21.6,30.2,0,-4208,20,32
1773579114.8657117,21.6,30.2,0,-4208,20,32
1773579114.8859355,21.6,30.2,0,-4212,88,140
1773579114.9067357,21.6,30.2,0,-4212,88,140
1773579114.9273276,21.6,30.2,0,-4164,92,76
1773579114.9480293,21.6,30.2,0,-4164,92,76
1773579114.968372,21.6,30.2,0,-4164,92,76
1773579114.988627,21.6,30.2,0,-4172,180,96
1773579115.0092087,21.6,30.2,0,-4172,180,96
1773579115.0296423,21.6,30.2,0,-4172,180,96
1773579115.0504527,21.6,30.2,0,-4208,168,228
1773579115.071033,21.6,30.2,0,-4208,168,228
1773579115.091571,21.6,30.2,0,-4212,-16,28
1773579115.1122465,21.6,30.2,0,-4212,-16,28
1773579115.1328523,21.6,30.2,0,-4212,-16,28
1773579115.1534302,21.6,30.2,0,-4140,152,116
1773579115.1739106,21.6,30.2,0,-4140,152,116
1773579115.194449,21.6,30.2,0,-4208,128,164
1773579115.215286,21.6,30.2,0,-4208,128,164
1773579115.2360337,21.6,30.2,0,-4208,128,164
1773579115.2566347,21.6,30.2,0,-4212,96,40
1773579115.277219,21.6,30.2,0,-4212,96,40
1773579115.2975895,21.6,30.2,0,-4168,164,212
1773579115.317753,21.6,30.2,0,-4168,164,212
1773579115.338115,21.6,30.2,0,-4168,164,212
1773579115.3582757,21.6,30.2,0,-4140,120,72
1773579115.3790748,21.6,30.2,0,-4140,120,72
1773579115.399317,21.6,30.2,0,-4140,120,72
1773579115.4206755,21.6,30.2,0,-4152,160,124
1773579115.4411619,21.6,30.2,0,-4152,160,124
1773579115.4613569,21.6,30.2,0,-4156,80,140
1773579115.4819672,21.6,30.2,0,-4156,80,140
1773579115.5027068,21.6,30.2,0,-4156,80,140
1773579115.523087,21.6,30.2,0,-4172,204,96
1773579115.5434322,21.6,30.2,0,-4172,204,96
1773579115.5638337,21.6,30.2,0,-4216,172,204
1773579115.5849733,21.6,30.2,0,-4216,172,204
1773579115.6055667,21.6,30.2,0,-4216,172,204
1773579115.6257505,21.6,30.2,0,-4184,120,20
1773579115.646389,21.6,30.2,0,-4184,120,20
1773579115.6668637,21.6,30.2,0,-4184,120,20
1773579115.687621,21.6,30.2,0,-4148,212,176
1773579115.708305,21.6,30.2,0,-4148,212,176
1773579115.7288284,21.6,30.2,0,-4188,156,152
1773579115.749561,21.6,30.2,0,-4188,156,152
1773579115.7701135,21.6,30.2,0,-4188,156,152
1773579115.7905636,21.6,30.2,0,-4192,76,84
1773579115.8113418,21.6,30.2,0,-4192,76,84
1773579115.8318412,21.6,30.2,0,-4132,228,176
1773579115.852268,21.6,30.2,0,-4132,228,176
1773579115.8727813,21.6,30.2,0,-4132,228,176
1773579115.8933523,21.6,30.2,0,-4124,164,100
1773579115.9137137,21.6,30.2,0,-4124,164,100
1773579115.9347348,21.6,30.2,0,-4168,88,124
1773579115.9552622,21.6,30.2,0,-4168,88,124
1773579115.9759517,21.6,30.2,0,-4168,88,124
1773579115.9964397,21.6,30.2,0,-4172,172,124
1773579116.017313,21.6,30.2,0,-4172,172,124
1773579116.0400069,21.6,30.2,0,-4172,172,124
1773579116.060766,21.6,30.2,0,-4168,164,92
1773579116.0814881,21.6,30.2,0,-4168,164,92
1773579116.10243,21.6,30.2,0,-4212,124,240
1773579116.1231155,21.6,30.2,0,-4212,124,240
1773579116.1436162,21.6,30.2,0,-4212,124,240
1773579116.16414,21.6,30.2,0,-4168,156,184
1773579116.185145,21.6,30.2,0,-4168,156,184
1773579116.205737,21.6,30.2,0,-4112,96,0
1773579116.2263389,21.6,30.2,0,-4112,96,0
1773579116.2468796,21.6,30.2,0,-4112,96,0
1773579116.2673364,21.6,30.2,0,-4192,176,136
1773579116.2879016,21.6,30.2,0,-4192,176,136
1773579116.3083582,21.6,30.2,0,-4172,140,136
1773579116.3289175,21.6,30.2,0,-4172,140,136
1773579116.3491902,21.6,30.2,0,-4172,140,136
1773579116.3697724,21.6,30.2,0,-4160,84,40
1773579116.3902953,21.6,30.2,0,-4160,84,40
1773579116.4109151,21.6,30.2,0,-4160,84,40
1773579116.4311233,21.6,30.2,0,-4176,268,176
1773579116.4514382,21.6,30.2,0,-4176,268,176
1773579116.4722855,21.6,30.2,0,-4184,128,140
1773579116.49275,21.6,30.2,0,-4184,128,140
1773579116.5134091,21.6,30.2,0,-4184,128,140
1773579116.5340924,21.6,30.2,0,-4184,128,140
1773579116.5560758,21.6,30.2,0,-4160,192,124
1773579116.5768425,21.6,30.2,0,-4160,192,124
1773579116.5976508,21.6,30.2,0,-4164,100,140
1773579116.6189303,21.6,30.2,0,-4164,100,140
1773579116.6395788,21.6,30.2,0,-4164,100,140
1773579116.659877,21.6,30.2,0,-4172,120,60
1773579116.6801045,21.6,30.2,0,-4172,120,60
1773579116.700769,21.6,30.2,0,-4172,120,60
1773579116.7210753,21.6,30.2,0,-4168,204,156
1773579116.7415876,21.6,30.2,0,-4168,204,156
1773579116.7620125,21.6,30.2,0,-4208,144,172
1773579116.7826304,21.6,30.2,0,-4208,144,172
1773579116.8029046,21.6,30.2,0,-4208,144,172
1773579116.8233216,21.6,30.2,0,-4188,156,48
1773579116.8438184,21.6,30.2,0,-4188,156,48
1773579116.8642933,21.6,30.2,0,-4164,212,108
1773579116.8850276,21.6,30.2,0,-4164,212,108
1773579116.9060476,21.6,30.2,0,-4164,212,108
1773579116.9267886,21.6,30.2,0,-4196,184,124
1773579116.9470882,21.6,30.2,0,-4196,184,124
1773579116.9683409,21.6,30.2,0,-4196,184,124
1773579116.9885294,21.6,30.2,0,-4180,64,96
1773579117.0092933,21.6,30.2,0,-4180,64,96
1773579117.0296512,21.6,30.2,0,-4188,228,168
1773579117.0504792,21.6,30.2,0,-4188,228,168
1773579117.071706,21.6,30.2,0,-4188,228,168
1773579117.0923188,21.6,30.2,0,-4164,148,132
1773579117.1127408,21.6,30.2,0,-4164,148,132
1773579117.1331623,21.6,30.2,0,-4176,128,120
1773579117.1534917,21.6,30.2,0,-4176,128,120
1773579117.1743636,21.6,30.2,0,-4176,128,120
1773579117.1947076,21.6,30.2,0,-4192,152,132
1773579117.2152097,21.6,30.2,0,-4192,152,132
1773579117.2354014,21.6,30.2,0,-4180,196,124
1773579117.2563696,21.6,30.2,0,-4180,196,124
1773579117.2769623,21.6,30.2,0,-4180,196,124
1773579117.2976139,21.6,30.2,0,-4204,64,128
1773579117.3181942,21.6,30.2,0,-4204,64,128
1773579117.338717,21.6,30.2,0,-4204,64,128
1773579117.3590395,21.6,30.2,0,-4212,200,220
1773579117.3794825,21.6,30.2,0,-4212,200,220
1773579117.3997302,21.6,30.2,0,-4132,164,88
1773579117.4204304,21.6,30.2,0,-4132,164,88
1773579117.4410784,21.6,30.2,0,-4132,164,88
1773579117.4615579,21.6,30.2,0,-4200,152,160
1773579117.48191,21.6,30.2,0,-4200,152,160
1773579117.5021772,21.6,30.2,0,-4204,36,128
1773579117.5225425,21.6,30.2,0,-4204,36,128
1773579117.5430052,21.6,30.2,0,-4204,36,128
1773579117.5633478,21.6,30.2,0,-4156,160,132
1773579117.5839877,21.6,30.2,0,-4156,160,132
1773579117.6043475,21.6,30.2,0,-4156,160,132
1773579117.6245902,21.6,30.2,0,-4144,152,100
1773579117.645164,21.6,30.2,0,-4144,152,100
1773579117.6654537,21.6,30.2,0,-4208,144,208
1773579117.6865864,21.6,30.2,0,-4208,144,208
1773579117.7067533,21.6,30.2,0,-4208,144,208
1773579117.7273078,21.6,30.2,0,-4180,156,104
1773579117.747941,21.6,30.2,0,-4180,156,104
1773579117.7688494,21.6,30.2,0,-4168,188,172
1773579117.7894332,21.6,30.2,0,-4168,188,172
1773579117.8098733,21.6,30.2,0,-4168,188,172
1773579117.830351,21.6,30.2,0,-4216,116,88
1773579117.8508487,21.6,30.2,0,-4216,116,88
1773579117.8715131,21.6,30.2,0,-4176,136,144
1773579117.8920422,21.6,30.2,0,-4176,136,144
1773579117.9124613,21.6,30.2,0,-4176,136,144
1773579117.9329853,21.6,30.2,0,-4156,132,100
1773579117.9534016,21.6,30.2,0,-4156,132,100
1773579117.9740632,21.6,30.2,0,-4156,132,100
1773579117.9944816,21.6,30.2,0,-4176,240,176
1773579118.0151389,21.6,30.2,0,-4176,240,176
1773579118.0356402,21.6,30.2,0,-4156,100,172
1773579118.0561829,21.6,30.2,0,-4156,100,172
1773579118.0768156,21.6,30.2,0,-4156,100,172
1773579118.0973125,21.6,30.2,0,-4172,160,88
1773579118.1191852,21.6,30.2,0,-4172,160,88
1773579118.1395257,21.6,30.2,0,-4152,192,52
1773579118.1601655,21.6,30.2,0,-4152,192,52
1773579118.180591,21.6,30.2,0,-4152,192,52
1773579118.201481,21.6,30.2,0,-4160,180,132
1773579118.2219713,21.6,30.2,0,-4160,180,132
1773579118.2421496,21.6,30.2,0,-4160,180,132
1773579118.262671,21.6,30.2,0,-4184,128,156
1773579118.2831526,21.6,30.2,0,-4184,128,156
1773579118.3039663,21.6,30.2,0,-4132,156,104
1773579118.3244977,21.6,30.2,0,-4132,156,104
1773579118.3449845,21.6,30.2,0,-4132,156,104
1773579118.365703,21.6,30.2,0,-4180,208,196
1773579118.3862355,21.6,30.2,0,-4180,208,196
1773579118.4068992,21.6,30.2,0,-4188,84,136
1773579118.4273572,21.6,30.2,0,-4188,84,136
1773579118.4479256,21.6,30.2,0,-4188,84,136
1773579118.4684074,21.6,30.2,0,-4108,164,152
1773579118.4888484,21.6,30.2,0,-4108,164,152
1773579118.5095272,21.6,30.2,0,-4168,92,116
1773579118.5298915,21.6,30.2,0,-4168,92,116
1773579118.551665,21.6,30.2,0,-4168,92,116
1773579118.5722177,21.6,30.2,0,-4168,92,116
1773579118.5925655,21.6,30.1,0,-4180,200,120
1773579118.6132288,21.6,30.1,0,-4180,200,120
1773579118.6354783,21.6,30.1,0,-4180,200,120
1773579118.6564288,21.6,30.1,0,-4188,136,88
1773579118.677546,21.6,30.1,0,-4188,136,88
1773579118.697861,21.6,30.1,0,-4200,144,200
1773579118.7187295,21.6,30.1,0,-4200,144,200
1773579118.7393208,21.6,30.1,0,-4200,144,200
1773579118.7607458,21.6,30.1,0,-4172,132,116
1773579118.7811449,21.6,30.1,0,-4172,132,116
1773579118.8021207,21.6,30.1,0,-4188,192,140
1773579118.8309622,21.6,30.1,0,-4188,192,140
1773579118.8518457,21.6,30.1,0,-4188,100,80
1773579118.8725038,21.6,30.1,0,-4188,100,80
1773579118.8932328,21.6,30.1,0,-4188,100,80
1773579118.9136968,21.6,30.1,0,-4180,124,152
1773579118.9361823,21.6,30.1,0,-4180,124,152
1773579118.956509,21.6,30.1,0,-4180,124,152
1773579118.976741,21.6,30.1,0,-4176,208,132
1773579118.9971678,21.6,30.1,0,-4176,208,132
1773579119.0192692,21.6,30.1,0,-4164,136,64
1773579119.0395727,21.6,30.1,0,-4164,136,64
1773579119.0600247,21.6,30.1,0,-4164,136,64
1773579119.0805585,21.6,30.1,0,-4196,160,184
1773579119.1008005,21.6,30.1,0,-4196,160,184
1773579119.1214168,21.6,30.1,0,-4132,144,120
1773579119.141682,21.6,30.1,0,-4132,144,120
1773579119.1618783,21.6,30.1,0,-4132,144,120
1773579119.1823661,21.6,30.1,0,-4196,172,136
1773579119.202805,21.6,30.1,0,-4196,172,136
1773579119.223127,21.6,30.1,0,-4200,116,124
1773579119.243584,21.6,30.1,0,-4200,116,124
1773579119.2641609,21.6,30.1,0,-4200,116,124
1773579119.28568,21.6,30.1,0,-4184,148,172
1773579119.305845,21.6,30.1,0,-4184,148,172
1773579119.3261857,21.6,30.1,0,-4184,148,172
1773579119.3466997,21.6,30.1,0,-4176,220,116
1773579119.3671777,21.6,30.1,0,-4176,220,116
1773579119.3877234,21.6,30.1,0,-4196,120,72
1773579119.4083407,21.6,30.1,0,-4196,120,72
1773579119.4289417,21.6,30.1,0,-4196,120,72
1773579119.4495761,21.6,30.1,0,-4196,120,164
1773579119.470009,21.6,30.1,0,-4196,120,164
1773579119.4906838,21.6,30.1,0,-4180,128,128
1773579119.5115638,21.6,30.1,0,-4180,128,128
1773579119.5321765,21.6,30.1,0,-4180,128,128
1773579119.5526855,21.6,30.1,0,-4212,176,152
1773579119.5732226,21.6,30.1,0,-4212,176,152
1773579119.5935318,21.6,30.1,0,-4212,176,152
1773579119.6142807,21.6,30.1,0,-4188,140,156
1773579119.6362927,21.6,30.1,0,-4188,140,156
1773579119.6567318,21.6,30.1,0,-4156,132,116
1773579119.67693,21.6,30.1,0,-4156,132,116
1773579119.697438,21.6,30.1,0,-4156,132,116
1773579119.7184234,21.6,30.1,0,-4204,180,120
1773579119.73886,21.6,30.1,0,-4204,180,120
1773579119.7594504,21.6,30.1,0,-4192,120,120
1773579119.7796743,21.6,30.1,0,-4192,120,120
1773579119.8002121,21.6,30.1,0,-4192,120,120
1773579119.820522,21.6,30.1,0,-4168,116,112
1773579119.8410394,21.6,30.1,0,-4168,116,112
1773579119.8614917,21.6,30.1,0,-4144,188,144
1773579119.8819273,21.6,30.1,0,-4144,188,144
1773579119.9025161,21.6,30.1,0,-4144,188,144
1773579119.922982,21.6,30.1,0,-4192,108,148
1773579119.9434826,21.6,30.1,0,-4192,108,148
1773579119.964114,21.6,30.1,0,-4192,108,148
1773579119.9855995,21.6,30.1,0,-4168,132,132
1773579120.0062833,21.6,30.1,0,-4168,132,132
1773579120.0268595,21.6,30.1,0,-4136,164,72
1773579120.0473144,21.6,30.1,0,-4136,164,72
1773579120.0678546,21.6,30.1,0,-4136,164,72
1773579120.088212,21.6,30.1,0,-4176,188,124
1773579120.108963,21.6,30.1,0,-4176,188,124
1773579120.1291263,21.6,30.1,0,-4176,104,104
1773579120.1498537,21.6,30.1,0,-4176,104,104
1773579120.1702526,21.6,30.1,0,-4176,104,104
1773579120.1905866,21.6,30.1,0,-4164,128,128
1773579120.2112656,21.6,30.1,0,-4164,128,128
1773579120.2319436,21.6,30.1,0,-4156,148,164
1773579120.2550194,21.6,30.1,0,-4156,148,164
1773579120.275474,21.6,30.1,0,-4156,148,164
1773579120.2960076,21.6,30.1,0,-4208,112,148
1773579120.3167906,21.6,30.1,0,-4208,112,148
1773579120.3372073,21.6,30.1,0,-4208,112,148
1773579120.3574557,21.6,30.1,0,-4168,140,112
1773579120.3778863,21.6,30.1,0,-4168,140,112
1773579120.3983705,21.6,30.1,0,-4192,156,132
1773579120.4189339,21.6,30.1,0,-4192,156,132
1773579120.4393456,21.6,30.1,0,-4192,156,132
1773579120.460511,21.6,30.1,0,-4204,132,128
1773579120.480978,21.6,30.1,0,-4204,132,128
1773579120.5015104,21.6,30.1,0,-4180,104,120
1773579120.5218766,21.6,30.1,0,-4180,104,120
1773579120.5425286,21.6,30.1,0,-4180,104,120
1773579120.5629463,21.6,30.1,0,-4180,164,116
1773579120.583799,21.6,30.1,0,-4180,164,116
1773579120.604595,21.6,30.1,0,-4180,164,116
1773579120.625333,21.6,30.1,0,-4180,164,116
1773579120.645535,21.6,30.1,0,-4136,108,136
1773579120.6662562,21.6,30.1,0,-4136,108,136
1773579120.6865926,21.6,30.1,0,-4148,172,112
1773579120.7071588,21.6,30.1,0,-4148,172,112
1773579120.7275953,21.6,30.1,0,-4148,172,112
1773579120.7480137,21.6,30.1,0,-4172,136,176
1773579120.7683232,21.6,30.1,0,-4172,136,176
1773579120.7888386,21.6,30.1,0,-4180,128,148
1773579120.8094902,21.6,30.1,0,-4180,128,148
1773579120.8301554,21.6,30.1,0,-4180,128,148
1773579120.850968,21.6,30.1,0,-4168,156,132
1773579120.871384,21.6,30.1,0,-4168,156,132
1773579120.8916876,21.6,30.1,0,-4168,156,132
1773579120.9123068,21.6,30.1,0,-4168,140,172
1773579120.9326808,21.6,30.1,0,-4168,140,172
1773579120.9532912,21.6,30.1,0,-4184,116,92
1773579120.9737585,21.6,30.1,0,-4184,116,92
1773579120.9944167,21.6,30.1,0,-4184,116,92
1773579121.0151484,21.6,30.1,0,-4152,120,148
1773579121.0354497,21.6,30.1,0,-4152,120,148
1773579121.055758,21.6,30.1,0,-4156,168,124
1773579121.076272,21.6,30.1,0,-4156,168,124
1773579121.0967317,21.6,30.1,0,-4156,168,124
1773579121.1172445,21.6,30.1,0,-4204,128,148
1773579121.1379352,21.6,30.1,0,-4204,128,148
1773579121.1582959,21.6,30.1,0,-4204,128,148
1773579121.1785963,21.6,30.1,0,-4168,128,112
1773579121.1987514,21.6,30.1,0,-4168,128,112
1773579121.2193885,21.6,30.1,0,-4184,188,136
1773579121.2398238,21.6,30.1,0,-4184,188,136
1773579121.2601075,21.6,30.1,0,-4184,188,136
1773579121.2803628,21.6,30.1,0,-4200,148,156
1773579121.3046396,21.6,30.1,0,-4200,148,156
1773579121.3250616,21.6,30.1,0,-4204,116,100
1773579121.3453429,21.6,30.1,0,-4204,116,100
1773579121.3657484,21.6,30.1,0,-4204,116,100
1773579121.3863068,21.6,30.1,0,-4168,156,144
1773579121.4068067,21.6,30.1,0,-4168,156,144
1773579121.4271524,21.6,30.1,0,-4184,168,124
1773579121.4475496,21.6,30.1,0,-4184,168,124
1773579121.4679627,21.6,30.1,0,-4184,168,124
1773579121.4883323,21.6,30.1,0,-4172,124,124
1773579121.5086317,21.6,30.1,0,-4172,124,124
1773579121.5290527,21.6,30.1,0,-4172,124,124
1773579121.549731,21.6,30.1,0,-4128,108,156
1773579121.570213,21.6,30.1,0,-4128,108,156
1773579121.594062,21.6,30.1,0,-4168,184,132
1773579121.614496,21.6,30.1,0,-4168,184,132
1773579121.635875,21.6,30.1,0,-4168,184,132
1773579121.656384,21.6,30.1,0,-4192,132,132
1773579121.6768653,21.6,30.1,0,-4192,132,132
1773579121.6976266,21.6,30.1,0,-4200,120,124
1773579121.7185714,21.6,30.1,0,-4200,120,124
1773579121.7394674,21.6,30.1,0,-4200,120,124
1773579121.7605925,21.6,30.1,0,-4156,188,128
1773579121.780997,21.6,30.1,0,-4156,188,128
1773579121.801802,21.6,30.1,0,-4164,124,144
1773579121.8220668,21.6,30.1,0,-4164,124,144
1773579121.8425443,21.6,30.1,0,-4164,124,144
1773579121.863136,21.6,30.1,0,-4204,140,120
1773579121.8835058,21.6,30.1,0,-4204,140,120
1773579121.9038324,21.6,30.1,0,-4164,128,136
1773579121.9247336,21.6,30.1,0,-4164,128,136
1773579121.945549,21.6,30.1,0,-4164,128,136
1773579121.966048,21.6,30.1,0,-4176,184,132
1773579121.987119,21.6,30.1,0,-4176,184,132
1773579122.0076962,21.6,30.1,0,-4176,184,132
1773579122.0279608,21.6,30.1,0,-4164,112,108
1773579122.0483444,21.6,30.1,0,-4164,112,108
1773579122.0685573,21.6,30.1,0,-4164,136,136
1773579122.0888515,21.6,30.1,0,-4164,136,136
1773579122.109961,21.6,30.1,0,-4164,136,136
1773579122.1305735,21.6,30.1,0,-4176,164,144
1773579122.1513386,21.6,30.1,0,-4176,164,144
1773579122.1717203,21.6,30.1,0,-4204,136,144
1773579122.1922822,21.6,30.1,0,-4204,136,144
1773579122.2129524,21.6,30.1,0,-4204,136,144
1773579122.2337239,21.6,30.1,0,-4168,128,128
1773579122.254308,21.6,30.1,0,-4168,128,128
1773579122.2745132,21.6,30.1,0,-4168,128,128
1773579122.2949426,21.6,30.1,0,-4172,148,136
1773579122.3152995,21.6,30.1,0,-4172,148,136
1773579122.3358202,21.6,30.1,0,-4208,156,120
1773579122.3564234,21.6,30.1,0,-4208,156,120
1773579122.3769498,21.6,30.1,0,-4208,156,120
1773579122.3972628,21.6,30.1,0,-4184,140,140
1773579122.4175694,21.6,30.1,0,-4184,140,140
1773579122.4381485,21.6,30.1,0,-4156,124,136
1773579122.458751,21.6,30.1,0,-4156,124,136
1773579122.4792602,21.6,30.1,0,-4156,124,136
1773579122.4997256,21.6,30.1,0,-4192,156,144
1773579122.5202055,21.6,30.1,0,-4192,156,144
1773579122.5406432,21.6,30.1,0,-4192,156,144
1773579122.5614007,21.6,30.1,0,-4200,136,120
1773579122.5817838,21.6,30.1,0,-4200,136,120
1773579122.6021047,21.6,30.1,0,-4144,108,116
1773579122.6229827,21.6,30.1,0,-4144,108,116
1773579122.6432915,21.6,30.1,0,-4144,108,116
1773579122.6636882,21.6,30.1,0,-4144,108,116
1773579122.6839755,21.6,30.1,0,-4168,136,112
1773579122.7045743,21.6,30.1,0,-4168,136,112
1773579122.7250216,21.6,30.1,0,-4168,136,112
1773579122.7457519,21.6,30.1,0,-4148,128,144
1773579122.7663274,21.6,30.1,0,-4148,128,144
1773579122.7867336,21.6,30.1,0,-4184,188,128
1773579122.8072057,21.6,30.1,0,-4184,188,128
1773579122.8280354,21.6,30.1,0,-4184,188,128
1773579122.8482318,21.6,30.1,0,-4188,136,100
1773579122.8690114,21.6,30.1,0,-4188,136,100
1773579122.8894181,21.6,30.1,0,-4172,120,144
1773579122.910069,21.6,30.1,0,-4172,120,144
1773579122.9304936,21.6,30.1,0,-4172,120,144
1773579122.9512703,21.6,30.1,0,-4164,168,124
1773579122.9720447,21.6,30.1,0,-4164,168,124
1773579122.9924135,21.6,30.1,0,-4216,164,100
1773579123.0128357,21.6,30.1,0,-4216,164,100
1773579123.0333753,21.6,30.1,0,-4216,164,100
1773579123.0537007,21.6,30.1,0,-4204,112,140
1773579123.0740347,21.6,30.1,0,-4204,112,140
1773579123.0946162,21.6,30.1,0,-4204,112,140
1773579123.1153486,21.6,30.1,0,-4172,140,108
1773579123.1356897,21.6,30.1,0,-4172,140,108
1773579123.1560676,21.6,30.1,1,-4188,156,128
1773579123.1764607,21.6,30.1,1,-4188,156,128
1773579123.1968284,21.6,30.1,1,-4188,156,128
1773579123.2174206,21.6,30.1,1,-4172,132,88
1773579123.2379036,21.6,30.1,1,-4172,132,88
1773579123.2583861,21.6,30.1,1,-4148,108,132
1773579123.2789464,21.6,30.1,1,-4148,108,132
1773579123.299674,21.6,30.1,1,-4148,108,132
1773579123.3201942,21.6,30.1,1,-4188,188,116
1773579123.3404653,21.6,30.1,1,-4188,188,116
1773579123.3608725,21.6,30.1,1,-4188,188,116
1773579123.381106,21.6,30.1,1,-4200,152,84
1773579123.401627,21.6,30.1,1,-4200,152,84
1773579123.4219809,21.6,30.1,1,-4176,88,132
1773579123.442198,21.6,30.1,1,-4176,88,132
1773579123.4625926,21.6,30.1,1,-4176,88,132
1773579123.4832475,21.6,30.1,1,-4196,172,136
1773579123.5037777,21.6,30.1,1,-4196,172,136
1773579123.5243561,21.6,30.1,0,-4196,176,120
1773579123.5448549,21.6,30.1,0,-4196,176,120
1773579123.5653713,21.6,30.1,0,-4196,176,120
1773579123.585945,21.6,30.1,0,-4180,120,112
1773579123.60646,21.6,30.1,0,-4180,120,112
1773579123.6271455,21.6,30.1,0,-4180,120,112
1773579123.6476128,21.6,30.1,0,-4152,120,144
1773579123.6686387,21.6,30.1,0,-4152,120,144
1773579123.6891866,21.6,30.1,0,-4180,168,108
1773579123.7098117,21.6,30.1,0,-4180,168,108
1773579123.7307107,21.6,30.1,0,-4180,168,108
1773579123.7526264,21.6,30.1,0,-4152,140,116
1773579123.7731905,21.6,30.1,0,-4152,140,116
1773579123.7938502,21.6,30.1,0,-4140,148,152
1773579123.814052,21.6,30.1,0,-4140,148,152
1773579123.8346374,21.6,30.1,0,-4140,148,152
1773579123.8551016,21.6,30.1,0,-4196,208,132
1773579123.8757849,21.6,30.1,0,-4196,208,132
1773579123.8961349,21.6,30.1,0,-4192,164,104
1773579123.9167123,21.6,30.1,0,-4192,164,104
1773579123.9371002,21.6,30.1,0,-4192,164,104
1773579123.9577582,21.6,30.1,0,-4148,124,104
1773579123.978246,21.6,30.1,0,-4148,124,104
1773579123.9987612,21.6,30.1,0,-4148,124,104
1773579124.0192764,21.6,30.1,0,-4144,168,124
1773579124.039739,21.6,30.1,0,-4144,168,124
1773579124.0601282,21.6,30.1,0,-4188,164,144
1773579124.0806208,21.6,30.1,0,-4188,164,144
1773579124.1017733,21.6,30.1,0,-4188,164,144
1773579124.1220412,21.6,30.1,0,-4176,120,100
1773579124.1454856,21.6,30.1,0,-4176,120,100
1773579124.1657712,21.6,30.1,0,-4176,144,144
1773579124.1860301,21.6,30.1,0,-4176,144,144
1773579124.2075007,21.6,30.1,0,-4176,144,144
1773579124.2279546,21.6,30.1,0,-4188,196,120
1773579124.2485156,21.6,30.1,0,-4188,196,120
1773579124.268853,21.6,30.1,0,-4176,140,108
1773579124.289767,21.6,30.1,0,-4176,140,108
1773579124.3104064,21.6,30.1,0,-4176,140,108
1773579124.3310413,21.6,30.1,0,-4164,104,136
1773579124.3516598,21.6,30.1,0,-4164,104,136
1773579124.3724062,21.6,30.1,0,-4176,184,132
1773579124.3929,21.6,30.1,0,-4176,184,132
1773579124.4133794,21.6,30.1,0,-4176,184,132
1773579124.4338777,21.6,30.1,0,-4208,128,112
1773579124.4542377,21.6,30.1,0,-4208,128,112
1773579124.474518,21.6,30.1,0,-4208,128,112
1773579124.495153,21.6,30.1,0,-4176,108,144
1773579124.5156236,21.6,30.1,0,-4176,108,144
1773579124.5360658,21.6,30.1,0,-4164,136,144
1773579124.556913,21.6,30.1,0,-4164,136,144
1773579124.5775113,21.6,30.1,0,-4164,136,144
1773579124.5981786,21.6,30.1,0,-4204,152,112
1773579124.6187382,21.6,30.1,0,-4204,152,112
1773579124.6391118,21.6,30.1,0,-4172,116,120
1773579124.6593347,21.6,30.1,0,-4172,116,120
1773579124.6796372,21.6,30.1,0,-4172,116,120
1773579124.7001216,21.6,30.1,0,-4172,116,120
1773579124.7206674,21.6,30.1,0,-4192,156,120
1773579124.741194,21.6,30.1,0,-4192,156,120
1773579124.7618365,21.6,30.1,0,-4192,156,120
1773579124.782248,21.6,30.1,0,-4172,124,112
1773579124.8028774,21.6,30.1,0,-4172,124,112
1773579124.8232794,21.6,30.1,0,-4192,136,132
1773579124.8439136,21.6,30.1,0,-4192,136,132
1773579124.8643255,21.6,30.1,0,-4192,136,132
1773579124.8845367,21.6,30.1,0,-4208,196,120
1773579124.9051552,21.6,30.1,0,-4208,196,120
1773579124.9254804,21.6,30.1,0,-4208,196,120
1773579124.9463909,21.6,30.1,0,-4176,108,112
1773579124.9671266,21.6,30.1,0,-4176,108,112
1773579124.9873588,21.6,30.1,0,-4180,116,152
1773579125.007678,21.6,30.1,0,-4180,116,152
1773579125.0282958,21.6,30.1,0,-4180,116,152
1773579125.048581,21.6,30.1,0,-4192,192,136
1773579125.0700443,21.6,30.1,0,-4192,192,136
1773579125.0904112,21.6,30.1,0,-4192,132,100
1773579125.110926,21.6,30.1,0,-4192,132,100
1773579125.131399,21.6,30.1,0,-4192,132,100
1773579125.1520429,21.6,30.1,0,-4164,96,128
1773579125.1724684,21.6,30.1,0,-4164,96,128
1773579125.1927867,21.6,30.1,0,-4164,96,128
1773579125.2136204,21.6,30.1,0,-4176,180,148
1773579125.234713,21.6,30.1,0,-4176,180,148
1773579125.255363,21.6,30.1,0,-4208,192,108
1773579125.2759173,21.6,30.1,0,-4208,192,108
1773579125.2966151,21.6,30.1,0,-4208,192,108
1773579125.317163,21.6,30.1,0,-4164,104,112
1773579125.337738,21.6,30.1,0,-4164,104,112
1773579125.358474,21.6,30.1,0,-4152,136,152
1773579125.3787873,21.6,30.1,0,-4152,136,152
1773579125.3992229,21.6,30.1,0,-4152,136,152
1773579125.419541,21.6,30.1,0,-4184,172,132
1773579125.4400728,21.6,30.1,0,-4184,172,132
1773579125.460672,21.6,30.1,0,-4184,108,112
1773579125.481339,21.6,30.1,0,-4184,108,112
1773579125.5025961,21.6,30.1,0,-4184,108,112
1773579125.5232942,21.6,30.1,0,-4168,124,144
1773579125.5440865,21.6,30.1,0,-4168,124,144
1773579125.5647244,21.6,30.1,0,-4168,124,144
1773579125.585043,21.6,30.1,0,-4192,196,124
1773579125.6057508,21.6,30.1,0,-4192,196,124
1773579125.626015,21.6,30.1,0,-4212,156,120
1773579125.6462817,21.6,30.1,0,-4212,156,120
1773579125.6670725,21.6,30.1,0,-4212,156,120
1773579125.6885808,21.6,30.1,0,-4152,112,132
1773579125.708909,21.6,30.1,0,-4152,112,132
1773579125.7291071,21.6,30.1,0,-4196,156,144
1773579125.7492566,21.6,30.1,0,-4196,156,144
1773579125.7730994,21.6,30.1,0,-4196,156,144
1773579125.7950366,21.6,30.1,0,-4200,148,116
1773579125.815709,21.6,30.1,0,-4200,148,116
1773579125.8390276,21.6,30.1,0,-4184,112,112
1773579125.859364,21.6,30.1,0,-4184,112,112
1773579125.8805811,21.6,30.1,0,-4184,112,112
1773579125.9029608,21.6,30.1,0,-4168,124,152
1773579125.9231575,21.6,30.1,0,-4168,124,152
1773579125.9437923,21.6,30.1,0,-4232,196,120
1773579125.964515,21.6,30.1,0,-4232,196,120
1773579125.9866326,21.6,30.1,0,-4232,196,120
1773579126.006993,21.6,30.1,0,-4152,124,112
1773579126.0274463,21.6,30.1,0,-4152,124,112
1773579126.0479746,21.6,30.1,0,-4160,124,132
1773579126.0694861,21.6,30.1,0,-4160,124,132
1773579126.0900888,21.6,30.1,0,-4160,124,132
1773579126.1115718,21.6,30.1,0,-4180,168,112
1773579126.1317701,21.6,30.1,0,-4180,168,112
1773579126.1522298,21.6,30.1,0,-4200,132,112
1773579126.1727915,21.6,30.1,0,-4200,132,112
1773579126.193355,21.6,30.1,0,-4200,132,112
1773579126.2141232,21.6,30.1,0,-4160,124,120
1773579126.2349074,21.6,30.1,0,-4160,124,120
1773579126.2552693,21.6,30.1,0,-4160,124,120
1773579126.2756295,21.6,30.1,0,-4172,148,144
1773579126.2959418,21.6,30.1,0,-4172,148,144
1773579126.3165715,21.6,30.1,0,-4200,124,164
1773579126.336794,21.6,30.1,0,-4200,124,164
1773579126.3570714,21.6,30.1,0,-4200,124,164
1773579126.3772526,21.6,30.1,0,-4184,108,128
1773579126.3979912,21.6,30.1,0,-4184,108,128
1773579126.4189506,21.6,30.1,0,-4164,108,148
1773579126.4390936,21.6,30.1,0,-4164,108,148
1773579126.4595056,21.6,30.1,0,-4164,108,148
1773579126.4798837,21.6,30.1,0,-4184,176,124
1773579126.5003352,21.6,30.1,0,-4184,176,124
1773579126.5207007,21.6,30.1,0,-4184,176,124
1773579126.5409956,21.6,30.1,0,-4204,108,92
1773579126.5614638,21.6,30.1,0,-4204,108,92
1773579126.581873,21.6,30.1,0,-4172,124,120
1773579126.6026335,21.6,30.1,0,-4172,124,120
1773579126.6234043,21.6,30.1,0,-4172,124,120
1773579126.644055,21.6,30.1,0,-4196,152,140
1773579126.664602,21.6,30.1,0,-4196,152,140
1773579126.6855242,21.6,30.1,0,-4208,140,120
1773579126.7057102,21.6,30.1,0,-4208,140,120
1773579126.7262268,21.6,30.1,0,-4208,140,120
1773579126.7467687,21.6,30.1,0,-4208,140,120
1773579126.769206,21.7,30.1,0,-4188,176,136
1773579126.7893784,21.7,30.1,0,-4188,176,136
1773579126.8099027,21.7,30.1,0,-4188,176,136
1773579126.8302093,21.7,30.1,0,-4172,152,124
1773579126.850698,21.7,30.1,0,-4172,152,124
1773579126.8710356,21.7,30.1,0,-4152,108,132
1773579126.8914433,21.7,30.1,0,-4152,108,132
1773579126.9124448,21.7,30.1,0,-4152,108,132
1773579126.9328756,21.7,30.1,0,-4192,192,144
1773579126.9537385,21.7,30.1,0,-4192,192,144
1773579126.974096,21.7,30.1,0,-4204,172,104
1773579126.9944308,21.7,30.1,0,-4204,172,104
1773579127.0147414,21.7,30.1,0,-4204,172,104
1773579127.035321,21.7,30.1,0,-4168,116,112
1773579127.0560887,21.7,30.1,0,-4168,116,112
1773579127.0767014,21.7,30.1,0,-4168,116,112
1773579127.0969734,21.7,30.1,0,-4132,136,160
1773579127.117491,21.7,30.1,0,-4132,136,160
1773579127.13817,21.7,30.1,0,-4184,156,128
1773579127.1585708,21.7,30.1,0,-4184,156,128
1773579127.1789253,21.7,30.1,0,-4184,156,128
1773579127.19946,21.7,30.1,0,-4188,120,112
1773579127.2199497,21.7,30.1,0,-4188,120,112
1773579127.2403135,21.7,30.1,0,-4132,136,144
1773579127.2607293,21.7,30.1,0,-4132,136,144
1773579127.2811735,21.7,30.1,0,-4132,136,144
1773579127.3018193,21.7,30.1,0,-4176,168,140
1773579127.3225582,21.7,30.1,0,-4176,168,140
1773579127.3432136,21.7,30.1,0,-4188,148,108
1773579127.363802,21.7,30.1,0,-4188,148,108
1773579127.385562,21.7,30.1,0,-4188,148,108
1773579127.4062026,21.7,30.1,0,-4168,120,124
1773579127.4267166,21.7,30.1,0,-4168,120,124
1773579127.4470935,21.7,30.1,0,-4168,120,124
1773579127.4679246,21.7,30.1,0,-4164,160,124
1773579127.488684,21.7,30.1,0,-4164,160,124
1773579127.5092037,21.7,30.1,0,-4188,136,132
1773579127.5294795,21.7,30.1,0,-4188,136,132
1773579127.5497272,21.7,30.1,0,-4188,136,132
1773579127.570322,21.7,30.1,0,-4180,128,100
1773579127.5910046,21.7,30.1,0,-4180,128,100
1773579127.6113956,21.7,30.1,0,-4176,140,148
1773579127.6322322,21.7,30.1,0,-4176,140,148
1773579127.6529574,21.7,30.1,0,-4176,140,148
1773579127.6731896,21.7,30.1,0,-4188,176,148
1773579127.6938567,21.7,30.1,0,-4188,176,148
1773579127.714815,21.7,30.1,0,-4188,176,148
1773579127.7353265,21.7,30.1,0,-4184,140,112
1773579127.7560992,21.7,30.1,0,-4184,140,112
1773579127.777095,21.7,30.1,0,-4140,112,132
1773579127.7981155,21.7,30.1,0,-4140,112,132
1773579127.8190973,21.7,30.1,0,-4140,112,132
1773579127.8400047,21.7,30.1,0,-4212,180,128
1773579127.8603714,21.7,30.1,0,-4212,180,128
1773579127.8808367,21.7,30.1,0,-4196,136,112
1773579127.9031196,21.7,30.1,0,-4196,136,112
1773579127.9236639,21.7,30.1,0,-4196,136,112
1773579127.9441695,21.7,30.1,0,-4160,112,120
1773579127.96501,21.7,30.1,0,-4160,112,120
1773579127.9863057,21.7,30.1,0,-4176,136,148
1773579128.0067165,21.7,30.1,0,-4176,136,148
1773579128.0274246,21.7,30.1,0,-4176,136,148
1773579128.0478773,21.7,30.1,0,-4232,168,128
1773579128.0687397,21.7,30.1,0,-4232,168,128
1773579128.0892448,21.7,30.1,0,-4200,136,104
1773579128.1115055,21.7,30.1,0,-4200,136,104
1773579128.1319182,21.7,30.1,0,-4200,136,104
1773579128.152517,21.7,30.1,0,-4144,124,152
1773579128.1736214,21.7,30.1,0,-4144,124,152
1773579128.194189,21.7,30.1,0,-4176,160,132
1773579128.2147202,21.7,30.1,0,-4176,160,132
1773579128.235208,21.7,30.1,0,-4176,160,132
1773579128.2554016,21.7,30.1,0,-4180,136,124
1773579128.2760477,21.7,30.1,0,-4180,136,124
1773579128.2963254,21.7,30.1,0,-4180,136,124
1773579128.3166277,21.7,30.1,0,-4140,108,124
1773579128.3370962,21.7,30.1,0,-4140,108,124
1773579128.3576334,21.7,30.1,0,-4184,172,128
1773579128.3782394,21.7,30.1,0,-4184,172,128
1773579128.3989346,21.7,30.1,0,-4184,172,128
1773579128.4192715,21.7,30.1,0,-4184,152,112
1773579128.4402578,21.7,30.1,0,-4184,152,112
1773579128.4610138,21.7,30.1,0,-4172,132,132
1773579128.4829,21.7,30.1,0,-4172,132,132
1773579128.5034995,21.7,30.1,0,-4172,132,132
1773579128.5238836,21.7,30.1,0,-4180,136,152
1773579128.5444427,21.7,30.1,0,-4180,136,152
1773579128.5647366,21.7,30.1,0,-4176,160,128
1773579128.5854192,21.7,30.1,0,-4176,160,128
1773579128.606208,21.7,30.1,0,-4176,160,128
1773579128.6267884,21.7,30.1,0,-4180,136,112
1773579128.6471002,21.7,30.1,0,-4180,136,112
1773579128.6673725,21.7,30.1,0,-4180,136,112
1773579128.6877053,21.7,30.1,0,-4168,120,136
1773579128.7079391,21.7,30.1,0,-4168,120,136
1773579128.7282543,21.7,30.1,0,-4184,172,144
1773579128.7487862,21.7,30.1,0,-4184,172,144
1773579128.7693236,21.7,30.1,0,-4184,172,144
1773579128.7899477,21.7,30.1,0,-4184,172,144
1773579128.8107648,21.7,30.1,0,-4160,128,144
1773579128.8312054,21.7,30.1,0,-4160,128,144
1773579128.8519967,21.7,30.1,0,-4160,128,144
1773579128.872569,21.7,30.1,0,-4188,172,136
1773579128.8933413,21.7,30.1,0,-4188,172,136
1773579128.9139218,21.7,30.1,0,-4172,120,116
1773579128.934341,21.7,30.1,0,-4172,120,116
1773579128.955286,21.7,30.1,0,-4172,120,116
1773579128.9757261,21.7,30.1,0,-4156,120,128
1773579128.9968693,21.7,30.1,0,-4156,120,128
1773579129.0203366,21.7,30.1,0,-4188,172,140
1773579129.0413089,21.7,30.1,0,-4188,172,140
1773579129.0618272,21.7,30.1,0,-4188,172,140
1773579129.0828488,21.7,30.1,0,-4192,116,120
1773579129.104954,21.7,30.1,0,-4192,116,120
1773579129.125563,21.7,30.1,0,-4176,96,124
1773579129.1462255,21.7,30.1,0,-4176,96,124
1773579129.1667216,21.7,30.1,0,-4176,96,124
1773579129.1874332,21.7,30.1,0,-4180,156,136
1773579129.2095482,21.7,30.1,0,-4180,156,136
1773579129.2300763,21.7,30.1,0,-4184,136,84
1773579129.2508318,21.7,30.1,0,-4184,136,84
1773579129.2714121,21.7,30.1,0,-4184,136,84
1773579129.2919977,21.7,30.1,0,-4164,120,92
1773579129.3124561,21.7,30.1,0,-4164,120,92
1773579129.3328834,21.7,30.1,0,-4164,120,92
1773579129.3535182,21.7,30.1,0,-4160,156,148
1773579129.374165,21.7,30.1,0,-4160,156,148
1773579129.3947837,21.7,30.1,0,-4212,180,124
1773579129.4157183,21.7,30.1,0,-4212,180,124
1773579129.436365,21.7,30.1,0,-4212,180,124
1773579129.457255,21.7,30.1,0,-4204,144,124
1773579129.4780946,21.7,30.1,0,-4204,144,124
1773579129.4986367,21.7,30.1,0,-4144,112,132
1773579129.519093,21.7,30.1,0,-4144,112,132
1773579129.5399132,21.7,30.1,0,-4144,112,132
1773579129.5604358,21.7,30.1,0,-4184,176,132
1773579129.5815494,21.7,30.1,0,-4184,176,132
1773579129.602209,21.7,30.1,0,-4208,144,116
1773579129.6228309,21.7,30.1,0,-4208,144,116
1773579129.6437728,21.7,30.1,0,-4208,144,116
1773579129.6644862,21.7,30.1,0,-4136,108,128
1773579129.6856933,21.7,30.1,0,-4136,108,128
1773579129.7065122,21.7,30.1,0,-4176,156,140
1773579129.727633,21.7,30.1,0,-4176,156,140
1773579129.7484071,21.7,30.1,0,-4176,156,140
1773579129.768758,21.7,30.1,0,-4176,136,144
1773579129.7895522,21.7,30.1,0,-4176,136,144
1773579129.810429,21.7,30.1,0,-4176,136,144
1773579129.8309498,21.7,30.1,0,-4188,120,136
1773579129.8516119,21.7,30.1,0,-4188,120,136
1773579129.8718963,21.7,30.1,0,-4132,108,164
1773579129.8923752,21.7,30.1,0,-4132,108,164
1773579129.9127455,21.7,30.1,0,-4132,108,164
1773579129.9329834,21.7,30.1,0,-4196,184,136
1773579129.9536524,21.7,30.1,0,-4196,184,136
1773579129.97386,21.7,30.1,0,-4196,116,104
1773579129.9949567,21.7,30.1,0,-4196,116,104
1773579130.0156305,21.7,30.1,0,-4196,116,104
1773579130.037586,21.7,30.1,0,-4168,116,132
1773579130.0582354,21.7,30.1,0,-4168,116,132
1773579130.0790088,21.7,30.1,0,-4172,168,148
1773579130.0993888,21.7,30.1,0,-4172,168,148
1773579130.1197817,21.7,30.1,0,-4172,168,148
1773579130.140137,21.7,30.1,0,-4192,152,140
1773579130.160472,21.7,30.1,0,-4192,152,140
1773579130.1811073,21.7,30.1,0,-4192,152,140
1773579130.2016943,21.7,30.1,0,-4164,116,136
1773579130.222087,21.7,30.1,0,-4164,116,136
1773579130.2424245,21.7,30.1,0,-4176,156,136
1773579130.2631865,21.7,30.1,0,-4176,156,136
1773579130.2838945,21.7,30.1,0,-4176,156,136
1773579130.3054304,21.7,30.1,0,-4204,172,124
1773579130.325845,21.7,30.1,0,-4204,172,124
1773579130.3467422,21.7,30.1,0,-4188,92,104
1773579130.3678074,21.7,30.1,0,-4188,92,104
1773579130.3889513,21.7,30.1,0,-4188,92,104
1773579130.4107213,21.7,30.1,0,-4164,124,132
1773579130.4322107,21.7,30.1,0,-4164,124,132
1773579130.4536314,21.7,30.1,0,-4176,176,144
1773579130.4756393,21.7,30.1,0,-4176,176,144
1773579130.4961994,21.7,30.1,0,-4176,176,144
1773579130.5198863,21.7,30.1,0,-4200,132,132
1773579130.54074,21.7,30.1,0,-4200,132,132
1773579130.5615306,21.7,30.1,0,-4172,136,132
1773579130.5822034,21.7,30.1,0,-4172,136,132
1773579130.6034226,21.7,30.1,0,-4172,136,132
1773579130.6249862,21.7,30.1,0,-4160,148,132
1773579130.6481044,21.7,30.1,0,-4160,148,132
1773579130.6697743,21.7,30.1,0,-4196,176,104
1773579130.6911798,21.7,30.1,0,-4196,176,104
1773579130.7117486,21.7,30.1,0,-4196,176,104
1773579130.732332,21.7,30.1,0,-4180,120,132
1773579130.7530916,21.7,30.1,0,-4180,120,132
1773579130.7736812,21.7,30.1,0,-4148,152,132
1773579130.7950735,21.7,30.1,0,-4148,152,132
1773579130.8154378,21.7,30.1,0,-4148,152,132
1773579130.8359065,21.7,30.1,0,-4148,152,132
1773579130.8562875,21.7,30.1,0,-4148,124,148
1773579130.876699,21.7,30.1,0,-4148,124,148
1773579130.8970966,21.7,30.1,0,-4148,124,148
1773579130.9175932,21.7,30.1,0,-4180,160,116
1773579130.9385545,21.7,30.1,0,-4180,160,116
1773579130.9591973,21.7,30.1,0,-4212,136,112
1773579130.980156,21.7,30.1,0,-4212,136,112
1773579131.0008013,21.7,30.1,0,-4212,136,112
1773579131.0233598,21.7,30.1,0,-4164,128,112
1773579131.0443368,21.7,30.1,0,-4164,128,112
1773579131.064895,21.7,30.1,0,-4172,136,164
1773579131.086265,21.7,30.1,0,-4172,136,164
1773579131.1078627,21.7,30.1,0,-4172,136,164
1773579131.1284072,21.7,30.1,0,-4200,204,144
1773579131.148797,21.7,30.1,0,-4200,204,144
1773579131.1697502,21.7,30.1,0,-4192,128,112
1773579131.1901262,21.7,30.1,0,-4192,128,112
1773579131.2103803,21.7,30.1,0,-4192,128,112
1773579131.2307663,21.7,30.1,0,-4156,128,128
1773579131.2515054,21.7,30.1,0,-4156,128,128
1773579131.2719088,21.7,30.1,0,-4196,192,128
1773579131.2926123,21.7,30.1,0,-4196,192,128
1773579131.313088,21.7,30.1,0,-4196,192,128
1773579131.33409,21.7,30.1,0,-4196,132,116
1773579131.3550878,21.7,30.1,0,-4196,132,116
1773579131.3755362,21.7,30.1,0,-4196,132,116
1773579131.3959954,21.7,30.1,0,-4180,128,132
1773579131.4164994,21.7,30.1,0,-4180,128,132
1773579131.4379466,21.7,30.1,0,-4172,152,152
1773579131.4583385,21.7,30.1,0,-4172,152,152
1773579131.4789217,21.7,30.1,0,-4172,152,152
1773579131.500389,21.7,30.1,0,-4228,172,140
1773579131.5210216,21.7,30.1,0,-4228,172,140
1773579131.5416913,21.7,30.1,0,-4180,120,124
1773579131.5621333,21.7,30.1,0,-4180,120,124
1773579131.5826354,21.7,30.1,0,-4180,120,124
1773579131.6033173,21.7,30.1,0,-4164,136,140
1773579131.6240005,21.7,30.1,0,-4164,136,140
1773579131.6443384,21.7,30.1,0,-4180,192,140
1773579131.6646857,21.7,30.1,0,-4180,192,140
1773579131.6859345,21.7,30.1,0,-4180,192,140
1773579131.7065094,21.7,30.1,0,-4204,124,132
1773579131.727704,21.7,30.1,0,-4204,124,132
1773579131.7489285,21.7,30.1,0,-4204,124,132
1773579131.7732549,21.7,30.1,0,-4148,132,120
1773579131.7936878,21.7,30.1,0,-4148,132,120
1773579131.8142972,21.7,30.1,0,-4172,152,112
1773579131.8348448,21.7,30.1,0,-4172,152,112
1773579131.855647,21.7,30.1,0,-4220,160,120
1773579131.876326,21.7,30.1,0,-4220,160,120
1773579131.8970318,21.7,30.1,0,-4220,160,120
1773579131.9175396,21.7,30.1,0,-4168,88,136
1773579131.9381506,21.7,30.1,0,-4168,88,136
1773579131.9585633,21.7,30.1,0,-4168,88,136
1773579131.9791436,21.7,30.1,0,-4160,172,152
1773579131.999585,21.7,30.1,0,-4160,172,152
1773579132.0201242,21.7,30.1,0,-4188,180,112
1773579132.0409787,21.7,30.1,0,-4188,180,112
1773579132.0614758,21.7,30.1,0,-4188,180,112
1773579132.0821037,21.7,30.1,0,-4176,124,88
1773579132.1024535,21.7,30.1,0,-4176,124,88
1773579132.123456,21.7,30.1,0,-4116,124,132
1773579132.143989,21.7,30.1,0,-4116,124,132
1773579132.1644373,21.7,30.1,0,-4116,124,132
1773579132.184855,21.7,30.1,0,-4188,200,72
1773579132.2053604,21.7,30.1,0,-4188,200,72
1773579132.2260163,21.7,30.1,0,-4188,200,72
1773579132.2465694,21.7,30.1,0,-4216,128,140
1773579132.2674465,21.7,30.1,0,-4216,128,140
1773579132.2879639,21.7,30.1,0,-4176,84,68
1773579132.3083737,21.7,30.1,0,-4176,84,68
1773579132.3290699,21.7,30.1,0,-4176,84,68
1773579132.3495946,21.7,30.1,0,-4148,180,120
1773579132.3701947,21.7,30.1,0,-4148,180,120
1773579132.3907592,21.7,30.1,0,-4188,108,136
1773579132.41151,21.7,30.1,0,-4188,108,136
1773579132.432145,21.7,30.1,0,-4188,108,136
1773579132.4527552,21.7,30.1,0,-4188,132,128
1773579132.4732125,21.7,30.1,0,-4188,132,128
1773579132.4935002,21.7,30.1,0,-4144,128,76
1773579132.5142999,21.7,30.1,0,-4144,128,76
1773579132.5351095,21.7,30.1,0,-4144,128,76
1773579132.5554943,21.7,30.1,0,-4164,196,104
1773579132.5761666,21.7,30.1,0,-4164,196,104
1773579132.5967433,21.7,30.1,0,-4164,196,104
1773579132.6172044,21.7,30.1,0,-4156,120,112
1773579132.6377125,21.7,30.1,0,-4156,120,112
1773579132.658774,21.7,30.1,0,-4164,136,104
1773579132.6792638,21.7,30.1,0,-4164,136,104
1773579132.6995232,21.7,30.1,0,-4164,136,104
1773579132.7213688,21.7,30.1,0,-4164,180,156
1773579132.7420135,21.7,30.1,0,-4164,180,156
1773579132.7621965,21.7,30.1,0,-4196,92,156
1773579132.782899,21.7,30.1,0,-4196,92,156
1773579132.8033562,21.7,30.1,0,-4196,92,156
1773579132.8237588,21.7,30.1,0,-4176,108,144
1773579132.8442745,21.7,30.1,0,-4176,108,144
1773579132.8650622,21.7,30.1,0,-4176,108,144
1773579132.88529,21.7,30.1,0,-4176,108,144
1773579132.906,21.7,30.1,0,-4220,112,108
1773579132.9262435,21.7,30.1,0,-4220,112,108
1773579132.9468853,21.7,30.1,0,-4172,164,132
1773579132.9673834,21.7,30.1,0,-4172,164,132
1773579132.9878783,21.7,30.1,0,-4172,164,132
1773579133.008782,21.7,30.1,0,-4180,96,56
1773579133.0292645,21.7,30.1,0,-4180,96,56
1773579133.0497904,21.7,30.1,0,-4216,136,204
1773579133.0704975,21.7,30.1,0,-4216,136,204
1773579133.0910847,21.7,30.1,0,-4216,136,204
1773579133.1114104,21.7,30.1,0,-4184,112,144
1773579133.1318812,21.7,30.1,0,-4184,112,144
1773579133.1525998,21.7,30.1,0,-4184,112,144
1773579133.1732597,21.7,30.1,0,-4148,228,112
1773579133.193572,21.7,30.1,0,-4148,228,112
1773579133.2143877,21.7,30.1,0,-4192,156,104
1773579133.2350693,21.7,30.1,0,-4192,156,104
1773579133.2557714,21.7,30.1,0,-4192,156,104
1773579133.276394,21.7,30.1,0,-4196,164,112
1773579133.297033,21.7,30.1,0,-4196,164,112
1773579133.3173404,21.7,30.1,0,-4128,108,164
1773579133.3377347,21.7,30.1,0,-4128,108,164
1773579133.3580658,21.7,30.1,0,-4128,108,164
1773579133.378716,21.7,30.1,0,-4176,336,132
1773579133.3991413,21.7,30.1,0,-4176,336,132
1773579133.4195948,21.7,30.1,0,-4176,336,132
1773579133.4402711,21.7,30.1,0,-4192,76,200
1773579133.46071,21.7,30.1,0,-4192,76,200
1773579133.481066,21.7,30.1,0,-4176,128,128
1773579133.5014052,21.7,30.1,0,-4176,128,128
1773579133.5220828,21.7,30.1,0,-4176,128,128
1773579133.5427637,21.7,30.1,0,-4160,176,56
1773579133.563474,21.7,30.1,0,-4160,176,56
1773579133.584025,21.7,30.1,0,-4216,88,72
1773579133.604481,21.7,30.1,0,-4216,88,72
1773579133.625262,21.7,30.1,0,-4216,88,72
1773579133.6457267,21.7,30.1,0,-4204,200,288
1773579133.6664212,21.7,30.1,0,-4204,200,288
1773579133.6872365,21.7,30.1,0,-4060,-76,-80
1773579133.707965,21.7,30.1,0,-4060,-76,-80
1773579133.7286227,21.7,30.1,0,-4060,-76,-80
1773579133.749284,21.7,30.1,0,-4148,76,180
1773579133.7699785,21.7,30.1,0,-4148,76,180
1773579133.7904356,21.7,30.1,0,-4148,76,180
1773579133.811275,21.7,30.1,0,-4188,48,172
1773579133.831751,21.7,30.1,0,-4188,48,172
1773579133.8523123,21.7,30.1,0,-4204,252,128
1773579133.8732579,21.7,30.1,0,-4204,252,128
1773579133.8938956,21.7,30.1,0,-4204,252,128
1773579133.9143393,21.7,30.1,0,-4172,176,148
1773579133.9346724,21.7,30.1,0,-4172,176,148
1773579133.955323,21.7,30.1,0,-4260,304,-4
1773579133.9759836,21.7,30.1,0,-4260,304,-4
1773579133.9966745,21.7,30.1,0,-4260,304,-4
1773579134.0169606,21.7,30.1,0,-4188,172,188
1773579134.0373533,21.7,30.1,0,-4188,172,188
1773579134.0575833,21.7,30.1,0,-4132,204,108
1773579134.0780683,21.7,30.1,0,-4132,204,108
1773579134.0990148,21.7,30.1,0,-4132,204,108
1773579134.119903,21.7,30.1,0,-4244,24,-164
1773579134.1402078,21.7,30.1,0,-4244,24,-164
1773579134.1605823,21.7,30.1,0,-4244,24,-164
1773579134.181038,21.7,30.1,0,-4172,32,144
1773579134.2017047,21.7,30.1,0,-4172,32,144
1773579134.2220466,21.7,30.1,0,-4236,304,220
1773579134.2425485,21.7,30.1,0,-4236,304,220
1773579134.2629566,21.7,30.1,0,-4236,304,220
1773579134.2832534,21.7,30.1,0,-4208,184,128
1773579134.3038697,21.7,30.1,0,-4208,184,128
1773579134.3249063,21.7,30.1,0,-4168,44,132
1773579134.3456054,21.7,30.1,0,-4168,44,132
1773579134.3663018,21.7,30.1,0,-4168,44,132
1773579134.387521,21.7,30.1,0,-4164,216,-16
1773579134.4082706,21.7,30.1,0,-4164,216,-16
1773579134.428726,21.7,30.1,0,-4204,212,396
1773579134.4491773,21.7,30.1,0,-4204,212,396
1773579134.4696815,21.7,30.1,0,-4204,212,396
1773579134.4899337,21.7,30.1,0,-4160,80,-12
1773579134.5104535,21.7,30.1,0,-4160,80,-12
1773579134.531349,21.7,30.1,0,-4160,80,-12
1773579134.5521386,21.7,30.1,0,-4080,-84,144
1773579134.5726256,21.7,30.1,0,-4080,-84,144
1773579134.5929396,21.7,30.1,0,-4168,252,320
1773579134.6133637,21.7,30.1,0,-4168,252,320
1773579134.6339178,21.7,30.1,0,-4168,252,320
1773579134.6541655,21.7,30.1,0,-4164,180,60
1773579134.6747684,21.7,30.1,0,-4164,180,60
1773579134.6952217,21.7,30.1,0,-4168,288,16
1773579134.7154083,21.7,30.1,0,-4168,288,16
1773579134.7359693,21.7,30.1,0,-4168,288,16
1773579134.7564166,21.7,30.1,0,-4152,368,292
1773579134.7768395,21.7,30.1,0,-4152,368,292
1773579134.797361,21.7,30.1,0,-4152,368,292
1773579134.8175366,21.7,30.1,0,-4228,184,180
1773579134.8380885,21.7,30.1,0,-4228,184,180
1773579134.858634,21.7,30.1,0,-4296,-88,200
1773579134.8790293,21.7,30.1,0,-4296,-88,200
1773579134.8998497,21.7,30.1,0,-4296,-88,200
1773579134.920171,21.7,30.1,0,-4296,-88,200
1773579134.9408035,21.7,30.1,0,-4224,432,336
1773579134.9610941,21.7,30.1,0,-4224,432,336
1773579134.981337,21.7,30.1,0,-4224,432,336
1773579135.0015514,21.7,30.1,0,-4268,-20,-260
1773579135.0221705,21.7,30.1,0,-4268,-20,-260
1773579135.0427825,21.7,30.1,0,-4000,344,72
1773579135.0630279,21.7,30.1,0,-4000,344,72
1773579135.0834901,21.7,30.1,0,-4000,344,72
1773579135.104311,21.7,30.1,0,-4220,384,364
1773579135.1247518,21.7,30.1,0,-4220,384,364
1773579135.1448972,21.7,30.1,0,-4128,-644,-368
1773579135.1655114,21.7,30.1,0,-4128,-644,-368
1773579135.1860297,21.7,30.1,0,-4128,-644,-368
1773579135.2065694,21.7,30.1,0,-4116,316,268
1773579135.2269585,21.7,30.1,0,-4116,316,268
1773579135.26856,21.7,30.1,0,-4232,244,332
1773579135.2889376,21.7,30.1,0,-4232,244,332
1773579135.3094516,21.7,30.1,0,-4140,-724,-76
1773579135.3302274,21.7,30.1,0,-4140,-724,-76
1773579135.350636,21.7,30.1,0,-4140,-724,-76
1773579135.3715265,21.7,30.1,0,-4136,280,336
1773579135.3920934,21.7,30.1,0,-4136,280,336
1773579135.4124882,21.7,30.1,0,-4160,276,152
1773579135.4327776,21.7,30.1,0,-4160,276,152
1773579135.4533434,21.7,30.1,0,-4160,276,152
1773579135.473969,21.7,30.1,0,-4312,88,-88
1773579135.4944685,21.7,30.1,0,-4312,88,-88
1773579135.5153966,21.7,30.1,0,-4312,88,-88
1773579135.5359466,21.7,30.1,0,-4256,704,568
1773579135.5563638,21.7,30.1,0,-4256,704,568
1773579135.5771208,21.7,30.1,0,-4268,48,164
1773579135.5980616,21.7,30.1,0,-4268,48,164
1773579135.6186166,21.7,30.1,0,-4268,48,164
1773579135.639564,21.7,30.1,0,-4144,-420,-32
1773579135.66005,21.7,30.1,0,-4144,-420,-32
1773579135.6803834,21.7,30.1,0,-4196,596,468
1773579135.7011907,21.7,30.1,0,-4196,596,468
1773579135.7227418,21.7,30.1,0,-4196,596,468
1773579135.7442415,21.7,30.1,0,-3992,-312,100
1773579135.7647946,21.7,30.1,0,-3992,-312,100
1773579135.7853165,21.7,30.1,0,-4100,488,452
