timestamp,temp,hum,mic,ax,ay,az
1773579226.9252927,22.1,30.2,0,-4160,164,408
1773579226.9459352,22.1,30.2,0,-4160,164,408
1773579226.9664147,22.1,30.2,0,-4128,92,448
1773579226.9865816,22.1,30.2,0,-4128,92,448
1773579227.0072086,22.1,30.2,0,-4156,124,416
1773579227.027982,22.1,30.2,0,-4156,124,416
1773579227.0484884,22.1,30.2,0,-4156,124,416
1773579227.069196,22.1,30.2,0,-4144,128,452
1773579227.089814,22.1,30.2,0,-4144,128,452
1773579227.1101155,22.1,30.2,0,-4180,160,388
1773579227.1306667,22.1,30.2,0,-4180,160,388
1773579227.151499,22.1,30.2,0,-4180,160,388
1773579227.1719553,22.1,30.2,0,-4120,64,436
1773579227.1923695,22.1,30.2,0,-4120,64,436
1773579227.2129102,22.1,30.2,0,-4120,64,436
1773579227.2332718,22.1,30.2,0,-4172,136,436
1773579227.254418,22.1,30.2,0,-4172,136,436
1773579227.2766793,22.1,30.2,0,-4144,108,464
1773579227.3024266,22.1,30.2,0,-4144,108,464
1773579227.3226328,22.1,30.2,0,-4160,132,372
1773579227.3437881,22.1,30.2,0,-4160,132,372
1773579227.364156,22.1,30.2,0,-4160,132,372
1773579227.385096,22.1,30.2,0,-4168,120,460
1773579227.4059892,22.1,30.2,0,-4168,120,460
1773579227.4266403,22.1,30.2,0,-4136,128,392
1773579227.4471846,22.1,30.2,0,-4136,128,392
1773579227.4680173,22.1,30.2,0,-4136,128,392
1773579227.488767,22.1,30.2,0,-4160,116,476
1773579227.5095022,22.1,30.2,0,-4160,116,476
1773579227.5297558,22.1,30.2,0,-4160,116,476
1773579227.5503895,22.1,30.2,0,-4144,116,376
1773579227.5707035,22.1,30.2,0,-4144,116,376
1773579227.591299,22.1,30.2,0,-4176,104,472
1773579227.6116498,22.1,30.2,0,-4176,104,472
1773579227.6321614,22.1,30.2,0,-4176,104,472
1773579227.6527083,22.1,30.2,0,-4156,152,424
1773579227.673118,22.1,30.2,0,-4156,152,424
1773579227.693578,22.1,30.2,0,-4096,84,468
1773579227.7138207,22.1,30.2,0,-4096,84,468
1773579227.7345428,22.1,30.2,0,-4096,84,468
1773579227.755032,22.1,30.2,0,-4172,180,448
1773579227.7758949,22.1,30.2,0,-4172,180,448
1773579227.7964227,22.1,30.2,0,-4172,180,448
1773579227.818542,22.1,30.2,0,-4144,64,464
1773579227.839212,22.1,30.2,0,-4144,64,464
1773579227.85997,22.1,30.2,0,-4148,132,412
1773579227.880332,22.1,30.2,0,-4148,132,412
1773579227.9009037,22.1,30.2,0,-4148,132,412
1773579227.9216802,22.1,30.2,0,-4132,76,476
1773579227.946521,22.1,30.2,0,-4132,76,476
1773579227.969557,22.1,30.2,0,-4184,164,424
1773579227.9898646,22.1,30.2,0,-4184,164,424
1773579228.0100932,22.1,30.2,0,-4152,84,440
1773579228.0302722,22.1,30.2,0,-4152,84,440
1773579228.050595,22.1,30.2,0,-4152,84,440
1773579228.0709062,22.1,30.2,0,-4168,76,404
1773579228.0912156,22.1,30.2,0,-4168,76,404
1773579228.1119173,22.1,30.2,0,-4168,76,404
1773579228.1324463,22.1,30.2,0,-4180,132,456
1773579228.1528494,22.1,30.2,0,-4180,132,456
1773579228.1730444,22.1,30.2,0,-4188,112,428
1773579228.1934564,22.1,30.2,0,-4188,112,428
1773579228.2136333,22.1,30.2,0,-4188,112,428
1773579228.2340608,22.1,30.2,0,-4120,128,432
1773579228.2543268,22.1,30.2,0,-4120,128,432
1773579228.275043,22.1,30.2,0,-4120,128,432
1773579228.2957287,22.1,30.2,0,-4180,128,420
1773579228.3160753,22.1,30.2,0,-4180,128,420
1773579228.3368454,22.1,30.2,0,-4172,140,428
1773579228.357402,22.1,30.2,0,-4172,140,428
1773579228.3779178,22.1,30.2,0,-4172,140,428
1773579228.3984325,22.1,30.2,0,-4188,104,428
1773579228.418828,22.1,30.2,0,-4188,104,428
1773579228.4394567,22.1,30.2,0,-4156,72,452
1773579228.4600484,22.1,30.2,0,-4156,72,452
1773579228.4804888,22.1,30.2,0,-4156,72,452
1773579228.5012856,22.1,30.2,0,-4168,88,448
1773579228.5214968,22.1,30.2,0,-4168,88,448
1773579228.5419095,22.1,30.2,0,-4160,108,464
1773579228.5623047,22.1,30.2,0,-4160,108,464
1773579228.5828133,22.1,30.2,0,-4160,108,464
1773579228.603275,22.1,30.2,0,-4160,108,464
1773579228.6237664,22.1,30.1,0,-4136,136,436
1773579228.6444402,22.1,30.1,0,-4136,136,436
1773579228.6649876,22.1,30.1,0,-4136,136,436
1773579228.685227,22.1,30.1,0,-4152,100,456
1773579228.7059305,22.1,30.1,0,-4152,100,456
1773579228.7264738,22.1,30.1,0,-4152,140,436
1773579228.7468293,22.1,30.1,0,-4152,140,436
1773579228.767114,22.1,30.1,0,-4152,140,436
1773579228.7876265,22.1,30.1,0,-4200,136,476
1773579228.8082826,22.1,30.1,0,-4200,136,476
1773579228.8285072,22.1,30.1,0,-4200,136,476
1773579228.8492484,22.1,30.1,0,-4172,124,440
1773579228.8697984,22.1,30.1,0,-4172,124,440
1773579228.89002,22.1,30.1,0,-4188,88,396
1773579228.9106762,22.1,30.1,0,-4188,88,396
1773579228.9313524,22.1,30.1,0,-4188,88,396
1773579228.9517586,22.1,30.1,0,-4192,96,480
1773579228.9723089,22.1,30.1,0,-4192,96,480
1773579228.993015,22.1,30.1,0,-4184,148,396
1773579229.013624,22.1,30.1,0,-4184,148,396
1773579229.0343988,22.1,30.1,0,-4184,148,396
1773579229.0551093,22.1,30.1,0,-4124,44,464
1773579229.0758493,22.1,30.1,0,-4124,44,464
1773579229.096364,22.1,30.1,0,-4124,44,464
1773579229.116622,22.1,30.1,0,-4180,160,412
1773579229.1369798,22.1,30.1,0,-4180,160,412
1773579229.1573088,22.1,30.1,0,-4164,128,464
1773579229.1778426,22.1,30.1,0,-4164,128,464
1773579229.198447,22.1,30.1,0,-4164,128,464
1773579229.218696,22.1,30.1,0,-4184,100,424
1773579229.239228,22.1,30.1,0,-4184,100,424
1773579229.2596633,22.1,30.1,0,-4144,88,432
1773579229.2800856,22.1,30.1,0,-4144,88,432
1773579229.3007126,22.1,30.1,0,-4144,88,432
1773579229.321146,22.1,30.1,0,-4180,180,468
1773579229.3416924,22.1,30.1,0,-4180,180,468
1773579229.3624191,22.1,30.1,0,-4168,120,392
1773579229.3830674,22.1,30.1,0,-4168,120,392
1773579229.403432,22.1,30.1,0,-4168,120,392
1773579229.424198,22.1,30.1,0,-4184,24,468
1773579229.4448264,22.1,30.1,0,-4184,24,468
1773579229.4652197,22.1,30.1,0,-4184,24,468
1773579229.485805,22.1,30.1,0,-4180,156,428
1773579229.5061529,22.1,30.1,0,-4180,156,428
1773579229.5263965,22.1,30.1,0,-4184,48,468
1773579229.5470428,22.1,30.1,0,-4184,48,468
1773579229.567719,22.1,30.1,0,-4184,48,468
1773579229.5884242,22.1,30.1,0,-4164,96,460
1773579229.6089423,22.1,30.1,0,-4164,96,460
1773579229.6293097,22.1,30.1,0,-4120,68,476
1773579229.6498687,22.1,30.1,0,-4120,68,476
1773579229.6704023,22.1,30.1,0,-4120,68,476
1773579229.6908588,22.1,30.1,0,-4156,160,440
1773579229.7114546,22.1,30.1,0,-4156,160,440
1773579229.7321837,22.1,30.1,0,-4156,160,440
1773579229.7524028,22.1,30.1,0,-4184,88,400
1773579229.7730603,22.1,30.1,0,-4184,88,400
1773579229.7932653,22.1,30.1,0,-4108,112,472
1773579229.8138454,22.1,30.1,0,-4108,112,472
1773579229.8344884,22.1,30.1,0,-4108,112,472
1773579229.8547394,22.1,30.1,0,-4188,164,436
1773579229.8752327,22.1,30.1,0,-4188,164,436
1773579229.895602,22.1,30.1,0,-4156,96,456
1773579229.916018,22.1,30.1,0,-4156,96,456
1773579229.9363594,22.1,30.1,0,-4156,96,456
1773579229.9570925,22.1,30.1,0,-4160,64,444
1773579229.9776905,22.1,30.1,0,-4160,64,444
1773579229.997965,22.1,30.1,0,-4160,64,444
1773579230.0186524,22.1,30.1,0,-4152,80,436
1773579230.0399778,22.1,30.1,0,-4152,80,436
1773579230.0603578,22.1,30.1,0,-4168,152,476
1773579230.0807145,22.1,30.1,0,-4168,152,476
1773579230.1011958,22.1,30.1,0,-4168,152,476
1773579230.1220214,22.1,30.1,0,-4172,176,376
1773579230.1427648,22.1,30.1,0,-4172,176,376
1773579230.1634178,22.1,30.1,0,-4132,28,444
1773579230.1838148,22.1,30.1,0,-4132,28,444
1773579230.2046049,22.1,30.1,0,-4132,28,444
1773579230.2249706,22.1,30.1,0,-4148,140,452
1773579230.2457135,22.1,30.1,0,-4148,140,452
1773579230.2662063,22.1,30.1,0,-4124,128,424
1773579230.287574,22.1,30.1,0,-4124,128,424
1773579230.3082747,22.1,30.1,0,-4124,128,424
1773579230.3286498,22.1,30.1,0,-4176,96,384
1773579230.349365,22.1,30.1,0,-4176,96,384
1773579230.3699331,22.1,30.1,0,-4176,96,384
1773579230.3906314,22.1,30.1,0,-4180,132,384
1773579230.4109683,22.1,30.1,0,-4180,132,384
1773579230.4312615,22.1,30.1,0,-4188,40,540
1773579230.4514358,22.1,30.1,0,-4188,40,540
1773579230.4719307,22.1,30.1,0,-4188,40,540
1773579230.4924462,22.1,30.1,0,-4108,152,436
1773579230.512626,22.1,30.1,0,-4108,152,436
1773579230.5332782,22.1,30.1,0,-4128,40,464
1773579230.553667,22.1,30.1,0,-4128,40,464
1773579230.574111,22.1,30.1,0,-4128,40,464
1773579230.594694,22.1,30.1,0,-4168,140,428
1773579230.6153011,22.1,30.1,0,-4168,140,428
1773579230.6354973,22.1,30.1,0,-4168,140,428
1773579230.655877,22.1,30.1,0,-4168,140,428
1773579230.676754,22.1,30.1,0,-4140,88,468
1773579230.6972723,22.1,30.1,0,-4140,88,468
1773579230.7178986,22.1,30.1,0,-4168,148,444
1773579230.738552,22.1,30.1,0,-4168,148,444
1773579230.7590964,22.1,30.1,0,-4168,148,444
1773579230.7796373,22.1,30.1,0,-4156,152,404
1773579230.8001776,22.1,30.1,0,-4156,152,404
1773579230.8209872,22.1,30.1,0,-4180,56,372
1773579230.8420029,22.1,30.1,0,-4180,56,372
1773579230.8631008,22.1,30.1,0,-4180,56,372
1773579230.8836453,22.1,30.1,0,-4152,68,504
1773579230.904218,22.1,30.1,0,-4152,68,504
1773579230.9248395,22.1,30.1,0,-4152,68,504
1773579230.945113,22.1,30.1,0,-4140,176,400
1773579230.9654107,22.1,30.1,0,-4140,176,400
1773579230.985888,22.1,30.1,0,-4132,92,412
1773579231.0067694,22.1,30.1,0,-4132,92,412
1773579231.027562,22.1,30.1,0,-4132,92,412
1773579231.0480964,22.1,30.1,0,-4208,68,424
1773579231.0684674,22.1,30.1,0,-4208,68,424
1773579231.0892797,22.1,30.1,0,-4184,136,424
1773579231.1101277,22.1,30.1,0,-4184,136,424
1773579231.130757,22.1,30.1,0,-4184,136,424
1773579231.1513228,22.1,30.1,0,-4180,80,484
1773579231.1719024,22.1,30.1,0,-4180,80,484
1773579231.192408,22.1,30.1,0,-4092,140,504
1773579231.2128522,22.1,30.1,0,-4092,140,504
1773579231.2337646,22.1,30.1,0,-4092,140,504
1773579231.25472,22.1,30.1,0,-4168,128,432
1773579231.2753072,22.1,30.1,0,-4168,128,432
1773579231.296202,22.1,30.1,0,-4168,128,432
1773579231.3170807,22.1,30.1,0,-4148,112,424
1773579231.3378286,22.1,30.1,0,-4148,112,424
1773579231.358649,22.1,30.1,0,-4184,72,360
1773579231.379152,22.1,30.1,0,-4184,72,360
1773579231.3996844,22.1,30.1,0,-4184,72,360
1773579231.4205492,22.1,30.1,0,-4168,80,504
1773579231.4421115,22.1,30.1,0,-4168,80,504
1773579231.4625163,22.1,30.1,0,-4140,136,448
1773579231.483413,22.1,30.1,0,-4140,136,448
1773579231.5039768,22.1,30.1,0,-4140,136,448
1773579231.5250878,22.1,30.1,0,-4116,164,432
1773579231.5459268,22.1,30.1,0,-4116,164,432
1773579231.566283,22.1,30.1,0,-4148,136,428
1773579231.5875657,22.1,30.1,0,-4148,136,428
1773579231.608315,22.1,30.1,0,-4148,136,428
1773579231.6290915,22.1,30.1,0,-4144,184,424
1773579231.6495829,22.1,30.1,0,-4144,184,424
1773579231.670215,22.1,30.1,0,-4160,84,432
1773579231.6905673,22.1,30.1,0,-4160,84,432
1773579231.7113497,22.1,30.1,0,-4160,84,432
1773579231.731775,22.1,30.1,0,-4156,24,468
1773579231.7522235,22.1,30.1,0,-4156,24,468
1773579231.7727625,22.1,30.1,0,-4156,24,468
1773579231.7932847,22.1,30.1,0,-4200,136,360
1773579231.8139794,22.1,30.1,0,-4200,136,360
1773579231.8358655,22.1,30.1,0,-4180,52,448
1773579231.8564687,22.1,30.1,0,-4180,52,448
1773579231.877023,22.1,30.1,0,-4180,52,448
1773579231.8980155,22.1,30.1,0,-4148,92,416
1773579231.9192042,22.1,30.1,0,-4148,92,416
1773579231.9397545,22.1,30.1,0,-4152,132,436
1773579231.9603379,22.1,30.1,0,-4152,132,436
1773579231.980982,22.1,30.1,0,-4152,132,436
1773579232.0020316,22.1,30.1,0,-4112,144,452
1773579232.0224283,22.1,30.1,0,-4112,144,452
1773579232.043018,22.1,30.1,0,-4164,144,436
1773579232.0633123,22.1,30.1,0,-4164,144,436
1773579232.0837631,22.1,30.1,0,-4164,144,436
1773579232.1042998,22.1,30.1,0,-4172,168,464
1773579232.1246805,22.1,30.1,0,-4172,168,464
1773579232.1455076,22.1,30.1,0,-4172,168,464
1773579232.1661801,22.1,30.1,0,-4148,144,512
1773579232.186952,22.1,30.1,0,-4148,144,512
1773579232.2074862,22.1,30.1,0,-4184,56,424
1773579232.2277257,22.1,30.1,0,-4184,56,424
1773579232.2483757,22.1,30.1,0,-4184,56,424
1773579232.2692864,22.1,30.1,0,-4200,128,408
1773579232.28982,22.1,30.1,0,-4200,128,408
1773579232.3105984,22.1,30.1,0,-4192,120,520
1773579232.3310592,22.1,30.1,0,-4192,120,520
1773579232.3516529,22.1,30.1,0,-4192,120,520
1773579232.3723881,22.1,30.1,0,-4208,36,472
1773579232.3929915,22.1,30.1,0,-4208,36,472
1773579232.4137695,22.1,30.1,0,-4208,36,472
1773579232.436477,22.1,30.1,0,-4192,160,428
1773579232.4578269,22.1,30.1,0,-4192,160,428
1773579232.4819446,22.1,30.1,0,-4228,148,500
1773579232.5028985,22.1,30.1,0,-4228,148,500
1773579232.5233593,22.1,30.1,0,-4236,32,480
1773579232.544298,22.1,30.1,0,-4236,32,480
1773579232.5653243,22.1,30.1,0,-4236,32,480
1773579232.5861287,22.1,30.1,0,-4228,220,412
1773579232.6070285,22.1,30.1,0,-4228,220,412
1773579232.6278229,22.1,30.1,0,-4192,88,476
1773579232.6491826,22.1,30.1,0,-4192,88,476
1773579232.6701767,22.1,30.1,0,-4192,88,476
1773579232.6910052,22.1,30.1,0,-4192,88,476
1773579232.7115424,22.1,30.0,0,-4120,76,452
1773579232.7323618,22.1,30.0,0,-4120,76,452
1773579232.753778,22.1,30.0,0,-4120,76,452
1773579232.774298,22.1,30.0,0,-4112,212,412
1773579232.79488,22.1,30.0,0,-4112,212,412
1773579232.8158326,22.1,30.0,0,-4160,100,416
1773579232.83625,22.1,30.0,0,-4160,100,416
1773579232.8570082,22.1,30.0,0,-4160,100,416
1773579232.8773682,22.1,30.0,0,-4124,44,472
1773579232.8981788,22.1,30.0,0,-4124,44,472
1773579232.9191725,22.1,30.0,0,-4088,176,388
1773579232.9397206,22.1,30.0,0,-4088,176,388
1773579232.9602485,22.1,30.0,0,-4088,176,388
1773579232.9809747,22.1,30.0,0,-4148,176,428
1773579233.002164,22.1,30.0,0,-4148,176,428
1773579233.0226536,22.1,30.0,0,-4144,52,472
1773579233.0429916,22.1,30.0,0,-4144,52,472
1773579233.0637407,22.1,30.0,0,-4144,52,472
1773579233.0840855,22.1,30.0,0,-4092,176,412
1773579233.1048355,22.1,30.0,0,-4092,176,412
1773579233.1260989,22.1,30.0,0,-4092,176,412
1773579233.1471841,22.1,30.0,0,-4116,176,424
1773579233.171028,22.1,30.0,0,-4116,176,424
1773579233.1917136,22.1,30.0,0,-4144,52,424
1773579233.212701,22.1,30.0,0,-4144,52,424
1773579233.2338521,22.1,30.0,0,-4144,52,424
1773579233.2543714,22.1,30.0,0,-4116,156,420
1773579233.2751768,22.1,30.0,0,-4116,156,420
1773579233.2957313,22.1,30.0,0,-4052,112,420
1773579233.3165438,22.1,30.0,0,-4052,112,420
1773579233.3376682,22.1,30.0,0,-4052,112,420
1773579233.3580885,22.1,30.0,0,-4196,136,432
1773579233.3785136,22.1,30.0,0,-4196,136,432
1773579233.3994796,22.1,30.0,0,-4156,76,428
1773579233.4199226,22.1,30.0,0,-4156,76,428
1773579233.4406197,22.1,30.0,0,-4156,76,428
1773579233.4617634,22.1,30.0,0,-4068,72,468
1773579233.4832523,22.1,30.0,0,-4068,72,468
1773579233.5038438,22.1,30.0,0,-4216,144,448
1773579233.5242097,22.1,30.0,0,-4216,144,448
1773579233.5451927,22.1,30.0,0,-4216,144,448
1773579233.5657308,22.1,30.0,0,-4220,96,428
1773579233.5867047,22.1,30.0,0,-4220,96,428
1773579233.6073375,22.1,30.0,0,-4124,56,400
1773579233.6291351,22.1,30.0,0,-4124,56,400
1773579233.6497982,22.1,30.0,0,-4124,56,400
1773579233.6704116,22.1,30.0,0,-4176,164,452
1773579233.6911507,22.1,30.0,0,-4176,164,452
1773579233.7118924,22.1,30.0,0,-4176,164,452
1773579233.7324495,22.1,30.0,0,-4220,96,504
1773579233.7530699,22.1,30.0,0,-4220,96,504
1773579233.7736182,22.1,30.0,0,-4240,12,468
1773579233.794476,22.1,30.0,0,-4240,12,468
1773579233.8148715,22.1,30.0,0,-4240,12,468
1773579233.8360128,22.1,30.0,0,-4176,152,444
1773579233.8569448,22.1,30.0,0,-4176,152,444
1773579233.878127,22.1,30.0,0,-4188,120,512
1773579233.8998847,22.1,30.0,0,-4188,120,512
1773579233.9204755,22.1,30.0,0,-4188,120,512
1773579233.941139,22.1,30.0,0,-4228,60,424
1773579233.9618957,22.1,30.0,0,-4228,60,424
1773579233.9827082,22.1,30.0,0,-4192,104,372
1773579234.0045493,22.1,30.0,0,-4192,104,372
1773579234.025639,22.1,30.0,0,-4192,104,372
1773579234.0461788,22.1,30.0,0,-4180,100,472
1773579234.066702,22.1,30.0,0,-4180,100,472
1773579234.0872467,22.1,30.0,0,-4084,120,492
1773579234.107998,22.1,30.0,0,-4084,120,492
1773579234.1285632,22.1,30.0,0,-4084,120,492
1773579234.1492841,22.1,30.0,0,-4172,180,388
1773579234.169826,22.1,30.0,0,-4172,180,388
1773579234.1902962,22.1,30.0,0,-4184,72,388
1773579234.210642,22.1,30.0,0,-4184,72,388
1773579234.2313554,22.1,30.0,0,-4184,72,388
1773579234.2520585,22.1,30.0,0,-4136,88,492
1773579234.272601,22.1,30.0,0,-4136,88,492
1773579234.2929454,22.1,30.0,0,-4136,88,492
1773579234.3132348,22.1,30.0,0,-4128,164,436
1773579234.3352175,22.1,30.0,0,-4128,164,436
1773579234.3560102,22.1,30.0,0,-4016,140,476
1773579234.37675,22.1,30.0,0,-4016,140,476
1773579234.397722,22.1,30.0,0,-4016,140,476
1773579234.418683,22.1,30.0,0,-4216,120,468
1773579234.4405816,22.1,30.0,0,-4216,120,468
1773579234.4618125,22.1,30.0,0,-4200,76,424
1773579234.4826822,22.1,30.0,0,-4200,76,424
1773579234.5036793,22.1,30.0,0,-4200,76,424
1773579234.524704,22.1,30.0,0,-4164,0,412
1773579234.5465126,22.1,30.0,0,-4164,0,412
1773579234.5675461,22.1,30.0,0,-4168,196,444
1773579234.5879145,22.1,30.0,0,-4168,196,444
1773579234.6083124,22.1,30.0,0,-4168,196,444
1773579234.6288338,22.1,30.0,0,-4140,136,448
1773579234.649585,22.1,30.0,0,-4140,136,448
1773579234.670284,22.1,30.0,0,-4196,92,416
1773579234.6907535,22.1,30.0,0,-4196,92,416
1773579234.7111793,22.1,30.0,0,-4196,92,416
1773579234.7321863,22.1,30.0,0,-4196,92,416
1773579234.7539756,22.1,30.0,0,-4184,56,436
1773579234.77542,22.1,30.0,0,-4184,56,436
1773579234.796812,22.1,30.0,0,-4184,56,436
1773579234.81708,22.1,30.0,0,-4100,28,440
1773579234.837821,22.1,30.0,0,-4100,28,440
1773579234.8581452,22.1,30.0,0,-4136,224,408
1773579234.8789346,22.1,30.0,0,-4136,224,408
1773579234.9000058,22.1,30.0,0,-4136,224,408
1773579234.9205961,22.1,30.0,0,-4192,144,456
1773579234.941211,22.1,30.0,0,-4192,144,456
1773579234.9619973,22.1,30.0,0,-4192,80,436
1773579234.9825897,22.1,30.0,0,-4192,80,436
1773579235.0035539,22.1,30.0,0,-4192,80,436
1773579235.0239666,22.1,30.0,0,-4196,100,392
1773579235.0453084,22.1,30.0,0,-4196,100,392
1773579235.066374,22.1,30.0,0,-4184,72,424
1773579235.0882971,22.1,30.0,0,-4184,72,424
1773579235.1095161,22.1,30.0,0,-4184,72,424
1773579235.1304994,22.1,30.0,0,-4112,76,488
1773579235.1525815,22.1,30.0,0,-4112,76,488
1773579235.1729362,22.1,30.0,0,-4120,164,436
1773579235.1939926,22.1,30.0,0,-4120,164,436
1773579235.2150633,22.1,30.0,0,-4120,164,436
1773579235.2361534,22.1,30.0,0,-4044,80,476
1773579235.2567508,22.1,30.0,0,-4044,80,476
1773579235.277494,22.1,30.0,0,-4220,236,412
1773579235.297759,22.1,30.0,0,-4220,236,412
1773579235.318218,22.1,30.0,0,-4220,236,412
1773579235.3396544,22.1,30.0,0,-4148,148,436
1773579235.3601367,22.1,30.0,0,-4148,148,436
1773579235.3808076,22.1,30.0,0,-4148,148,436
1773579235.401532,22.1,30.0,0,-4212,12,460
1773579235.4222207,22.1,30.0,0,-4212,12,460
1773579235.4428473,22.1,30.0,0,-4224,140,436
1773579235.4637873,22.1,30.0,0,-4224,140,436
1773579235.4857552,22.1,30.0,0,-4224,140,436
1773579235.5064304,22.1,30.0,0,-4192,12,388
1773579235.5273197,22.1,30.0,0,-4192,12,388
1773579235.5481634,22.1,30.0,0,-4112,40,456
1773579235.5716803,22.1,30.0,0,-4112,40,456
1773579235.5922096,22.1,30.0,0,-4112,40,456
1773579235.6129184,22.1,30.0,0,-4128,116,508
1773579235.6334503,22.1,30.0,0,-4128,116,508
1773579235.6542249,22.1,30.0,0,-4044,84,448
1773579235.6750367,22.1,30.0,0,-4044,84,448
1773579235.6955245,22.1,30.0,0,-4044,84,448
1773579235.7159371,22.1,30.0,0,-4176,240,408
1773579235.7366955,22.1,30.0,0,-4176,240,408
1773579235.757209,22.1,30.0,0,-4128,144,420
1773579235.7782025,22.1,30.0,0,-4128,144,420
1773579235.7986794,22.1,30.0,0,-4128,144,420
1773579235.8194826,22.1,30.0,0,-4164,100,508
1773579235.8403072,22.1,30.0,0,-4164,100,508
1773579235.860835,22.1,30.0,0,-4168,172,436
1773579235.8811042,22.1,30.0,0,-4168,172,436
1773579235.9018698,22.1,30.0,0,-4168,172,436
1773579235.9226635,22.1,30.0,0,-4180,20,400
1773579235.9435573,22.1,30.0,0,-4180,20,400
1773579235.9641225,22.1,30.0,0,-4180,20,400
1773579235.98621,22.1,30.0,0,-4224,112,440
1773579236.0073862,22.1,30.0,0,-4224,112,440
1773579236.0281696,22.1,30.0,0,-4200,68,464
1773579236.0490072,22.1,30.0,0,-4200,68,464
1773579236.0694861,22.1,30.0,0,-4200,68,464
1773579236.0921931,22.1,30.0,0,-4188,-16,460
1773579236.1141102,22.1,30.0,0,-4188,-16,460
1773579236.1347086,22.1,30.0,0,-4156,164,412
1773579236.155147,22.1,30.0,0,-4156,164,412
1773579236.1764336,22.1,30.0,0,-4156,164,412
1773579236.197179,22.1,30.0,0,-4132,28,420
1773579236.2174342,22.1,30.0,0,-4132,28,420
1773579236.2379203,22.1,30.0,0,-4120,100,412
1773579236.2614303,22.1,30.0,0,-4120,100,412
1773579236.2828567,22.1,30.0,0,-4120,100,412
1773579236.3035913,22.1,30.0,0,-4164,96,396
1773579236.3243196,22.1,30.0,0,-4164,96,396
1773579236.3454747,22.1,30.0,0,-4156,144,452
1773579236.366578,22.1,30.0,0,-4156,144,452
1773579236.3868468,22.1,30.0,0,-4156,144,452
1773579236.4076622,22.1,30.0,0,-4160,224,436
1773579236.427945,22.1,30.0,0,-4160,224,436
1773579236.4482956,22.1,30.0,0,-4068,68,432
1773579236.4686053,22.1,30.0,0,-4068,68,432
1773579236.4891274,22.1,30.0,0,-4068,68,432
1773579236.5095215,22.1,30.0,0,-4108,84,476
1773579236.5299582,22.1,30.0,0,-4108,84,476
1773579236.55047,22.1,30.0,0,-4152,168,440
1773579236.571067,22.1,30.0,0,-4152,168,440
1773579236.5913258,22.1,30.0,0,-4152,168,440
1773579236.611892,22.1,30.0,0,-4128,88,420
1773579236.632887,22.1,30.0,0,-4128,88,420
1773579236.6531274,22.1,30.0,0,-4128,88,420
1773579236.6738026,22.1,30.0,0,-4160,176,384
1773579236.6943839,22.1,30.0,0,-4160,176,384
1773579236.71464,22.1,30.0,0,-4084,120,456
1773579236.7356536,22.1,30.0,0,-4084,120,456
1773579236.7566872,22.1,30.0,0,-4084,120,456
1773579236.7777472,22.1,30.0,0,-4084,120,456
1773579236.8001387,22.1,29.9,0,-4192,236,384
1773579236.8208172,22.1,29.9,0,-4192,236,384
1773579236.841649,22.1,29.9,0,-4160,168,444
1773579236.8624403,22.1,29.9,0,-4160,168,444
1773579236.883349,22.1,29.9,0,-4160,168,444
1773579236.9062538,22.1,29.9,0,-4132,88,516
1773579236.9267402,22.1,29.9,0,-4132,88,516
1773579236.947402,22.1,29.9,0,-4140,152,460
1773579236.9691093,22.1,29.9,0,-4140,152,460
1773579236.9895113,22.1,29.9,0,-4140,152,460
1773579237.010382,22.1,29.9,0,-4128,72,440
1773579237.0318685,22.1,29.9,0,-4128,72,440
1773579237.0520794,22.1,29.9,0,-4128,72,440
1773579237.0725093,22.1,29.9,0,-4192,212,376
1773579237.0929978,22.1,29.9,0,-4192,212,376
1773579237.1134198,22.1,29.9,0,-4124,124,440
1773579237.1339316,22.1,29.9,0,-4124,124,440
1773579237.1544197,22.1,29.9,0,-4124,124,440
1773579237.1750257,22.1,29.9,0,-4140,84,540
1773579237.1953068,22.1,29.9,0,-4140,84,540
1773579237.2158737,22.1,29.9,0,-4184,172,476
1773579237.2365756,22.1,29.9,0,-4184,172,476
1773579237.256868,22.1,29.9,0,-4184,172,476
1773579237.2773817,22.1,29.9,0,-4152,68,408
1773579237.2982907,22.1,29.9,0,-4152,68,408
1773579237.3195004,22.1,29.9,0,-4196,232,324
1773579237.3402233,22.1,29.9,0,-4196,232,324
1773579237.3613675,22.1,29.9,0,-4196,232,324
1773579237.3833144,22.1,29.9,0,-4132,160,452
1773579237.4041193,22.1,29.9,0,-4132,160,452
1773579237.4247522,22.1,29.9,0,-4132,160,452
1773579237.445731,22.1,29.9,0,-4176,132,476
1773579237.4665902,22.1,29.9,0,-4176,132,476
1773579237.487564,22.1,29.9,0,-4136,104,452
1773579237.5086823,22.1,29.9,0,-4136,104,452
1773579237.5295305,22.1,29.9,0,-4136,104,452
1773579237.552099,22.1,29.9,0,-4128,52,444
1773579237.5726569,22.1,29.9,0,-4128,52,444
1773579237.5935378,22.1,29.9,0,-4212,240,384
1773579237.6141737,22.1,29.9,0,-4212,240,384
1773579237.6349194,22.1,29.9,0,-4212,240,384
1773579237.6561124,22.1,29.9,0,-4056,-4,436
1773579237.6765976,22.1,29.9,0,-4056,-4,436
1773579237.6969366,22.1,29.9,0,-4172,124,444
1773579237.7175262,22.1,29.9,0,-4172,124,444
1773579237.7376854,22.1,29.9,0,-4172,124,444
1773579237.7580855,22.1,29.9,0,-4192,80,432
1773579237.778556,22.1,29.9,0,-4192,80,432
1773579237.7988124,22.1,29.9,0,-4124,40,440
1773579237.81941,22.1,29.9,0,-4124,40,440
1773579237.8398004,22.1,29.9,0,-4124,40,440
1773579237.8601935,22.1,29.9,0,-4152,172,468
1773579237.8808167,22.1,29.9,0,-4152,172,468
1773579237.9011135,22.1,29.9,0,-4152,172,468
1773579237.9213803,22.1,29.9,0,-4160,0,512
1773579237.9418411,22.1,29.9,0,-4160,0,512
1773579237.9625587,22.1,29.9,0,-4168,228,364
1773579237.9832141,22.1,29.9,0,-4168,228,364
1773579238.003973,22.1,29.9,0,-4168,228,364
1773579238.0248322,22.1,29.9,0,-4108,44,360
1773579238.0452435,22.1,29.9,0,-4108,44,360
1773579238.06561,22.1,29.9,0,-4188,80,496
1773579238.0858324,22.1,29.9,0,-4188,80,496
1773579238.106575,22.1,29.9,0,-4188,80,496
1773579238.127266,22.1,29.9,0,-4212,164,524
1773579238.1475728,22.1,29.9,0,-4212,164,524
1773579238.168482,22.1,29.9,0,-4084,-4,452
1773579238.1891358,22.1,29.9,0,-4084,-4,452
1773579238.209753,22.1,29.9,0,-4084,-4,452
1773579238.2301276,22.1,29.9,0,-4188,208,444
1773579238.2507513,22.1,29.9,0,-4188,208,444
1773579238.2713034,22.1,29.9,0,-4188,208,444
1773579238.2916002,22.1,29.9,0,-4104,-44,440
1773579238.312046,22.1,29.9,0,-4104,-44,440
1773579238.3323824,22.1,29.9,0,-4216,284,408
1773579238.353354,22.1,29.9,0,-4216,284,408
1773579238.374361,22.1,29.9,0,-4216,284,408
1773579238.3949876,22.1,29.9,0,-4164,128,400
1773579238.4151924,22.1,29.9,0,-4164,128,400
1773579238.4358099,22.1,29.9,0,-4152,28,436
1773579238.4561706,22.1,29.9,0,-4152,28,436
1773579238.4766471,22.1,29.9,0,-4152,28,436
1773579238.4971278,22.1,29.9,0,-4172,156,484
1773579238.5177546,22.1,29.9,0,-4172,156,484
1773579238.5381,22.1,29.9,0,-4172,156,484
1773579238.5589132,22.1,29.9,0,-4092,-40,532
1773579238.5794404,22.1,29.9,0,-4092,-40,532
1773579238.599918,22.1,29.9,0,-4200,284,340
1773579238.6205742,22.1,29.9,0,-4200,284,340
1773579238.6409495,22.1,29.9,0,-4200,284,340
1773579238.6615226,22.1,29.9,0,-4076,-68,440
1773579238.6819866,22.1,29.9,0,-4076,-68,440
1773579238.7025797,22.1,29.9,0,-4200,284,348
1773579238.7229435,22.1,29.9,0,-4200,284,348
1773579238.7436633,22.1,29.9,0,-4200,284,348
1773579238.7643468,22.1,29.9,0,-4184,116,432
1773579238.784955,22.1,29.9,0,-4184,116,432
1773579238.8054466,22.1,29.9,0,-4184,116,432
1773579238.8259254,22.1,29.9,0,-4184,116,432
1773579238.8463666,22.1,29.8,0,-4224,316,372
1773579238.866821,22.1,29.8,0,-4224,316,372
1773579238.8870962,22.1,29.8,0,-4124,92,400
1773579238.9079375,22.1,29.8,0,-4124,92,400
1773579238.928255,22.1,29.8,0,-4124,92,400
1773579238.9487484,22.1,29.8,0,-4172,132,372
1773579238.9692397,22.1,29.8,0,-4172,132,372
1773579238.9896424,22.1,29.8,0,-4200,120,428
1773579239.0099874,22.1,29.8,0,-4200,120,428
1773579239.0303073,22.1,29.8,0,-4200,120,428
1773579239.050453,22.1,29.8,0,-4084,-100,472
1773579239.07109,22.1,29.8,0,-4084,-100,472
1773579239.0915534,22.1,29.8,0,-4084,-100,472
1773579239.1134732,22.1,29.8,0,-4216,344,512
1773579239.134124,22.1,29.8,0,-4216,344,512
1773579239.1546547,22.1,29.8,0,-4056,-72,472
1773579239.1755986,22.1,29.8,0,-4056,-72,472
1773579239.1963067,22.1,29.8,0,-4056,-72,472
1773579239.216922,22.1,29.8,0,-4224,300,344
1773579239.2374318,22.1,29.8,0,-4224,300,344
1773579239.2580497,22.1,29.8,0,-4084,-64,472
1773579239.2787402,22.1,29.8,0,-4084,-64,472
1773579239.2995243,22.1,29.8,0,-4084,-64,472
1773579239.3202717,22.1,29.8,0,-4152,268,304
1773579239.3412244,22.1,29.8,0,-4152,268,304
1773579239.3616128,22.1,29.8,0,-4152,268,304
1773579239.3823483,22.1,29.8,0,-4168,116,420
1773579239.4031043,22.1,29.8,0,-4168,116,420
1773579239.423796,22.1,29.8,0,-4164,28,368
1773579239.4443882,22.1,29.8,0,-4164,28,368
1773579239.465066,22.1,29.8,0,-4164,28,368
1773579239.485693,22.1,29.8,0,-4232,188,520
1773579239.5064645,22.1,29.8,0,-4232,188,520
1773579239.5271456,22.1,29.8,0,-4116,-88,476
1773579239.547671,22.1,29.8,0,-4116,-88,476
1773579239.5685003,22.1,29.8,0,-4116,-88,476
1773579239.5889645,22.1,29.8,0,-4184,324,492
1773579239.60955,22.1,29.8,0,-4184,324,492
1773579239.6302469,22.1,29.8,0,-4104,-108,524
1773579239.6506696,22.1,29.8,0,-4104,-108,524
1773579239.6710436,22.1,29.8,0,-4104,-108,524
1773579239.6915078,22.1,29.8,0,-4228,260,360
1773579239.7119746,22.1,29.8,0,-4228,260,360
1773579239.732936,22.1,29.8,0,-4228,260,360
1773579239.7534907,22.1,29.8,0,-4044,-44,476
1773579239.7742422,22.1,29.8,0,-4044,-44,476
1773579239.7949536,22.1,29.8,0,-4160,204,248
1773579239.8157566,22.1,29.8,0,-4160,204,248
1773579239.8364851,22.1,29.8,0,-4160,204,248
1773579239.8572772,22.1,29.8,0,-4180,144,484
1773579239.8780854,22.1,29.8,0,-4180,144,484
1773579239.8988457,22.1,29.8,0,-4160,16,360
1773579239.9194229,22.1,29.8,0,-4160,16,360
1773579239.939824,22.1,29.8,0,-4160,16,360
1773579239.9602537,22.1,29.8,0,-4200,180,496
1773579239.980839,22.1,29.8,0,-4200,180,496
1773579240.0015755,22.1,29.8,0,-4096,-80,484
1773579240.0218422,22.1,29.8,0,-4096,-80,484
1773579240.0422127,22.1,29.8,0,-4096,-80,484
1773579240.062516,22.1,29.8,0,-4232,328,496
1773579240.0831552,22.1,29.8,0,-4232,328,496
1773579240.1037452,22.1,29.8,0,-4232,328,496
1773579240.1242468,22.1,29.8,0,-4060,-68,520
1773579240.144899,22.1,29.8,0,-4060,-68,520
1773579240.165378,22.1,29.8,0,-4220,332,340
1773579240.1858087,22.1,29.8,0,-4220,332,340
1773579240.2063093,22.1,29.8,0,-4220,332,340
1773579240.2270825,22.1,29.8,0,-4120,-100,616
1773579240.2475107,22.1,29.8,0,-4120,-100,616
1773579240.2680826,22.1,29.8,0,-4204,172,184
1773579240.288772,22.1,29.8,0,-4204,172,184
1773579240.3093612,22.1,29.8,0,-4204,172,184
1773579240.330007,22.1,29.8,0,-4112,0,540
1773579240.3505342,22.1,29.8,0,-4112,0,540
1773579240.3708413,22.1,29.8,0,-4124,168,240
1773579240.391222,22.1,29.8,0,-4124,168,240
1773579240.4117882,22.1,29.8,0,-4124,168,240
1773579240.4321108,22.1,29.8,0,-4116,164,512
1773579240.453568,22.1,29.8,0,-4116,164,512
1773579240.4739795,22.1,29.8,0,-4116,164,512
1773579240.49472,22.1,29.8,0,-4112,92,304
1773579240.5151193,22.1,29.8,0,-4112,92,304
1773579240.5359576,22.1,29.8,0,-4204,172,468
1773579240.5562937,22.1,29.8,0,-4204,172,468
1773579240.5767157,22.1,29.8,0,-4204,172,468
1773579240.5970693,22.1,29.8,0,-4216,8,444
1773579240.617533,22.1,29.8,0,-4216,8,444
1773579240.639498,22.1,29.8,0,-4208,176,328
1773579240.6600764,22.1,29.8,0,-4208,176,328
1773579240.6806428,22.1,29.8,0,-4208,176,328
1773579240.7030826,22.1,29.8,0,-4144,-72,656
1773579240.7251701,22.1,29.8,0,-4144,-72,656
1773579240.7463536,22.1,29.8,0,-4204,304,372
1773579240.7669744,22.1,29.8,0,-4204,304,372
1773579240.7874172,22.1,29.8,0,-4204,304,372
1773579240.8082595,22.1,29.8,0,-4060,-64,732
1773579240.8291233,22.1,29.8,0,-4060,-64,732
1773579240.8498852,22.1,29.8,0,-4060,-64,732
1773579240.870557,22.1,29.8,0,-4060,-64,732
1773579240.892257,22.1,29.6,0,-4156,100,440
1773579240.913971,22.1,29.6,0,-4156,100,440
1773579240.9358487,22.1,29.6,1,-4180,24,444
1773579240.9562695,22.1,29.6,1,-4180,24,444
1773579240.9767008,22.1,29.6,1,-4180,24,444
1773579240.9975865,22.1,29.6,1,-4204,176,324
1773579241.0187998,22.1,29.6,1,-4204,176,324
1773579241.039455,22.1,29.6,1,-4168,-92,660
1773579241.05997,22.1,29.6,1,-4168,-92,660
1773579241.0807688,22.1,29.6,1,-4168,-92,660
1773579241.1017056,22.1,29.6,1,-4224,340,376
1773579241.1224716,22.1,29.6,1,-4224,340,376
1773579241.1441236,22.1,29.6,1,-4040,-220,724
1773579241.165314,22.1,29.6,1,-4040,-220,724
1773579241.186367,22.1,29.6,1,-4040,-220,724
1773579241.2073197,22.1,29.6,0,-4252,444,292
1773579241.2283466,22.1,29.6,0,-4252,444,292
1773579241.2491856,22.1,29.6,0,-4084,-200,660
1773579241.2696743,22.1,29.6,0,-4084,-200,660
1773579241.290109,22.1,29.6,0,-4084,-200,660
1773579241.3107274,22.1,29.6,0,-4256,424,184
1773579241.3313847,22.1,29.6,0,-4256,424,184
1773579241.3520823,22.1,29.6,0,-4080,-196,576
1773579241.3726594,22.1,29.6,0,-4080,-196,576
1773579241.393441,22.1,29.6,0,-4080,-196,576
1773579241.4139059,22.1,29.6,0,-4240,364,184
1773579241.4342892,22.1,29.6,0,-4240,364,184
1773579241.45519,22.1,29.6,0,-4240,364,184
1773579241.4757283,22.1,29.6,0,-4076,-56,548
1773579241.49647,22.1,29.6,0,-4076,-56,548
1773579241.520285,22.1,29.6,0,-4144,228,244
1773579241.5414517,22.1,29.6,0,-4144,228,244
1773579241.5623474,22.1,29.6,0,-4144,228,244
1773579241.5840056,22.1,29.6,0,-4072,64,588
1773579241.6065938,22.1,29.6,0,-4072,64,588
1773579241.62753,22.1,29.6,0,-4112,216,268
1773579241.6493723,22.1,29.6,0,-4112,216,268
1773579241.670031,22.1,29.6,0,-4152,72,488
1773579241.6936665,22.1,29.6,0,-4152,72,488
1773579241.7142944,22.1,29.6,0,-4152,72,488
1773579241.7347643,22.1,29.6,0,-4124,128,376
1773579241.7554655,22.1,29.6,0,-4124,128,376
1773579241.7760293,22.1,29.6,0,-4152,172,420
1773579241.7965586,22.1,29.6,0,-4152,172,420
1773579241.8183498,22.1,29.6,0,-4152,172,420
1773579241.8392735,22.1,29.6,0,-4132,56,460
1773579241.8604991,22.1,29.6,0,-4132,56,460
1773579241.8813932,22.1,29.6,0,-4132,56,460
1773579241.9021573,22.1,29.6,0,-4172,244,336
1773579241.9228387,22.1,29.6,0,-4172,244,336
1773579241.9434834,22.1,29.6,0,-4192,-4,488
1773579241.9639885,22.1,29.6,0,-4192,-4,488
1773579241.9855154,22.1,29.6,0,-4192,-4,488
1773579242.0066571,22.1,29.6,0,-4184,276,292
1773579242.0275457,22.1,29.6,0,-4184,276,292
1773579242.0483198,22.1,29.6,0,-4136,-148,568
1773579242.0689604,22.1,29.6,0,-4136,-148,568
1773579242.0895977,22.1,29.6,0,-4136,-148,568
1773579242.1100147,22.1,29.6,0,-4204,364,308
1773579242.131813,22.1,29.6,0,-4204,364,308
1773579242.1523843,22.1,29.6,0,-4124,-120,636
1773579242.1753933,22.1,29.6,0,-4124,-120,636
1773579242.196139,22.1,29.6,0,-4124,-120,636
1773579242.2190392,22.1,29.6,0,-4224,420,228
1773579242.2395978,22.1,29.6,0,-4224,420,228
1773579242.2614293,22.1,29.6,0,-4088,-208,640
1773579242.2825327,22.1,29.6,0,-4088,-208,640
1773579242.3032234,22.1,29.6,0,-4088,-208,640
1773579242.3238568,22.1,29.6,0,-4208,440,208
1773579242.3446536,22.1,29.6,0,-4208,440,208
1773579242.365128,22.1,29.6,0,-4028,-208,648
1773579242.3854089,22.1,29.6,0,-4028,-208,648
1773579242.4058707,22.1,29.6,0,-4028,-208,648
1773579242.4262824,22.1,29.6,0,-4204,380,228
1773579242.447049,22.1,29.6,0,-4204,380,228
1773579242.4674702,22.1,29.6,0,-4064,-208,708
1773579242.4881744,22.1,29.6,0,-4064,-208,708
1773579242.5085807,22.1,29.6,0,-4064,-208,708
1773579242.5289147,22.1,29.6,0,-4236,428,240
1773579242.5493274,22.1,29.6,0,-4236,428,240
1773579242.5698807,22.1,29.6,0,-4236,428,240
1773579242.5905085,22.1,29.6,0,-4044,-228,656
1773579242.611309,22.1,29.6,0,-4044,-228,656
1773579242.6319757,22.1,29.6,0,-4268,416,224
1773579242.6545672,22.1,29.6,0,-4268,416,224
1773579242.6750445,22.1,29.6,0,-4268,416,224
1773579242.6954618,22.1,29.6,0,-4076,-188,676
1773579242.7171814,22.1,29.6,0,-4076,-188,676
1773579242.73812,22.1,29.6,0,-4244,404,252
1773579242.7589514,22.1,29.6,0,-4244,404,252
1773579242.7796779,22.1,29.6,0,-4244,404,252
1773579242.8029382,22.1,29.6,0,-4056,-148,688
1773579242.82377,22.1,29.6,0,-4056,-148,688
1773579242.8443112,22.1,29.6,0,-4264,360,288
1773579242.8653722,22.1,29.6,0,-4264,360,288
1773579242.8859637,22.1,29.6,0,-4264,360,288
1773579242.9066496,22.1,29.6,0,-4264,360,288
1773579242.929277,22.1,29.5,0,-4112,48,504
1773579242.9499586,22.1,29.5,0,-4112,48,504
1773579242.9710114,22.1,29.5,0,-4168,272,340
1773579242.9914227,22.1,29.5,0,-4168,272,340
1773579243.0122852,22.1,29.5,0,-4168,272,340
1773579243.032651,22.1,29.5,0,-4088,0,484
1773579243.0529459,22.1,29.5,0,-4088,0,484
1773579243.0737169,22.1,29.5,0,-4088,0,484
1773579243.0946255,22.1,29.5,0,-4132,292,348
1773579243.1156662,22.1,29.5,0,-4132,292,348
1773579243.1362784,22.1,29.5,0,-4116,-4,504
1773579243.1568644,22.1,29.5,0,-4116,-4,504
1773579243.1775432,22.1,29.5,0,-4116,-4,504
1773579243.197727,22.1,29.5,0,-4152,400,288
1773579243.2188923,22.1,29.5,0,-4152,400,288
1773579243.239477,22.1,29.5,0,-4068,-60,448
1773579243.2600253,22.1,29.5,0,-4068,-60,448
1773579243.281176,22.1,29.5,0,-4068,-60,448
1773579243.3013773,22.1,29.5,0,-4132,364,348
1773579243.322143,22.1,29.5,0,-4132,364,348
1773579243.3428295,22.1,29.5,0,-4096,-4,476
1773579243.3633826,22.1,29.5,0,-4096,-4,476
1773579243.385021,22.1,29.5,0,-4096,-4,476
1773579243.4057665,22.1,29.5,0,-4128,288,332
1773579243.426399,22.1,29.5,0,-4128,288,332
1773579243.4468455,22.1,29.5,0,-4076,-8,492
1773579243.4670596,22.1,29.5,0,-4076,-8,492
1773579243.4874825,22.1,29.5,0,-4076,-8,492
1773579243.5086153,22.1,29.5,0,-4116,268,380
1773579243.529298,22.1,29.5,0,-4116,268,380
1773579243.5497894,22.1,29.5,0,-4116,268,380
1773579243.5705411,22.1,29.5,0,-4080,16,448
1773579243.5912979,22.1,29.5,0,-4080,16,448
1773579243.6121109,22.1,29.5,0,-4112,196,372
1773579243.6327882,22.1,29.5,0,-4112,196,372
1773579243.654767,22.1,29.5,0,-4112,196,372
1773579243.675445,22.1,29.5,0,-4084,28,468
1773579243.6963384,22.1,29.5,0,-4084,28,468
1773579243.7169003,22.1,29.5,0,-4100,208,384
1773579243.737302,22.1,29.5,0,-4100,208,384
1773579243.7577004,22.1,29.5,0,-4100,208,384
1773579243.7781584,22.1,29.5,0,-4116,24,432
1773579243.7986925,22.1,29.5,0,-4116,24,432
1773579243.819127,22.1,29.5,0,-4120,152,480
1773579243.8396406,22.1,29.5,0,-4120,152,480
1773579243.8603048,22.1,29.5,0,-4120,152,480
1773579243.8808765,22.1,29.5,0,-4136,136,408
1773579243.9027143,22.1,29.5,0,-4136,136,408
1773579243.9232635,22.1,29.5,0,-4136,136,408
1773579243.943914,22.1,29.5,0,-4136,80,480
1773579243.9646962,22.1,29.5,0,-4136,80,480
1773579243.9855125,22.1,29.5,0,-4144,160,416
1773579244.006166,22.1,29.5,0,-4144,160,416
1773579244.0265932,22.1,29.5,0,-4144,160,416
1773579244.0478823,22.1,29.5,0,-4132,12,548
1773579244.0687108,22.1,29.5,0,-4132,12,548
1773579244.0890243,22.1,29.5,0,-4164,176,376
1773579244.1096554,22.1,29.5,0,-4164,176,376
1773579244.1304698,22.1,29.5,0,-4164,176,376
1773579244.151976,22.1,29.5,0,-4140,-24,508
1773579244.1725705,22.1,29.5,0,-4140,-24,508
1773579244.1936438,22.1,29.5,0,-4160,220,340
1773579244.2147274,22.1,29.5,0,-4160,220,340
1773579244.2356908,22.1,29.5,0,-4160,220,340
1773579244.2575343,22.1,29.5,0,-4152,-40,540
1773579244.278491,22.1,29.5,0,-4152,-40,540
1773579244.2992108,22.1,29.5,0,-4184,204,316
1773579244.3215554,22.1,29.5,0,-4184,204,316
1773579244.342196,22.1,29.5,0,-4184,204,316
1773579244.3627565,22.1,29.5,0,-4192,28,556
1773579244.3837545,22.1,29.5,0,-4192,28,556
1773579244.4042864,22.1,29.5,0,-4220,220,348
1773579244.4248157,22.1,29.5,0,-4220,220,348
1773579244.4457839,22.1,29.5,0,-4220,220,348
1773579244.4664795,22.1,29.5,0,-4176,4,568
1773579244.4879255,22.1,29.5,0,-4176,4,568
1773579244.5085409,22.1,29.5,0,-4176,4,568
1773579244.5299182,22.1,29.5,0,-4216,208,288
1773579244.5513043,22.1,29.5,0,-4216,208,288
1773579244.571894,22.1,29.5,0,-4172,36,532
1773579244.593106,22.1,29.5,0,-4172,36,532
1773579244.6142766,22.1,29.5,0,-4172,36,532
1773579244.6348672,22.1,29.5,0,-4216,184,336
1773579244.6552863,22.1,29.5,0,-4216,184,336
1773579244.6760426,22.1,29.5,0,-4120,36,508
1773579244.6972888,22.1,29.5,0,-4120,36,508
1773579244.7187648,22.1,29.5,0,-4120,36,508
1773579244.7394698,22.1,29.5,0,-4196,140,416
1773579244.7604613,22.1,29.5,0,-4196,140,416
1773579244.7818248,22.1,29.5,0,-4128,64,468
1773579244.8025148,22.1,29.5,0,-4128,64,468
1773579244.823523,22.1,29.5,0,-4128,64,468
1773579244.8442037,22.1,29.5,0,-4136,124,376
1773579244.864901,22.1,29.5,0,-4136,124,376
1773579244.8857272,22.1,29.5,0,-4132,52,480
1773579244.906112,22.1,29.5,0,-4132,52,480
1773579244.926845,22.1,29.5,0,-4132,52,480
1773579244.9476051,22.1,29.5,0,-4132,52,480
1773579244.9699316,22.1,29.4,0,-4188,68,484
1773579244.9907978,22.1,29.4,0,-4188,68,484
1773579245.0113702,22.1,29.4,0,-4192,192,380
1773579245.0318654,22.1,29.4,0,-4192,192,380
1773579245.0527267,22.1,29.4,0,-4192,192,380
1773579245.0733368,22.1,29.4,0,-4104,132,452
1773579245.095255,22.1,29.4,0,-4104,132,452
1773579245.1160069,22.1,29.4,0,-4104,132,452
1773579245.1363425,22.1,29.4,0,-4180,88,400
1773579245.156781,22.1,29.4,0,-4180,88,400
1773579245.177581,22.1,29.4,0,-4116,108,420
1773579245.197953,22.1,29.4,0,-4116,108,420
1773579245.2219744,22.1,29.4,0,-4116,108,420
1773579245.2448242,22.1,29.4,0,-4120,108,436
1773579245.2653189,22.1,29.4,0,-4120,108,436
1773579245.2865515,22.1,29.4,0,-4164,136,408
1773579245.306877,22.1,29.4,0,-4164,136,408
1773579245.3275106,22.1,29.4,0,-4164,136,408
1773579245.348289,22.1,29.4,0,-4096,108,464
1773579245.369362,22.1,29.4,0,-4096,108,464
1773579245.3900821,22.1,29.4,0,-4184,152,400
1773579245.4108493,22.1,29.4,0,-4184,152,400
1773579245.4315174,22.1,29.4,0,-4184,152,400
1773579245.4524326,22.1,29.4,0,-4120,104,492
1773579245.4729354,22.1,29.4,0,-4120,104,492
1773579245.4937685,22.1,29.4,0,-4184,160,316
1773579245.5144126,22.1,29.4,0,-4184,160,316
1773579245.535155,22.1,29.4,0,-4184,160,316
1773579245.5555665,22.1,29.4,0,-4208,16,544
1773579245.576326,22.1,29.4,0,-4208,16,544
1773579245.597229,22.1,29.4,0,-4156,236,352
1773579245.617517,22.1,29.4,0,-4156,236,352
1773579245.6380024,22.1,29.4,0,-4156,236,352
1773579245.6585062,22.1,29.4,0,-4192,24,504
1773579245.6793268,22.1,29.4,0,-4192,24,504
1773579245.700019,22.1,29.4,0,-4192,24,504
1773579245.7210684,22.1,29.4,0,-4196,172,332
1773579245.7418246,22.1,29.4,0,-4196,172,332
1773579245.7630312,22.1,29.4,0,-4160,116,532
1773579245.7841225,22.1,29.4,0,-4160,116,532
1773579245.8048394,22.1,29.4,0,-4160,116,532
1773579245.825726,22.1,29.4,0,-4172,124,388
1773579245.846821,22.1,29.4,0,-4172,124,388
1773579245.8674057,22.1,29.4,0,-4116,152,424
1773579245.8877313,22.1,29.4,0,-4116,152,424
1773579245.9087048,22.1,29.4,0,-4116,152,424
1773579245.9296362,22.1,29.4,0,-4140,160,480
1773579245.9528043,22.1,29.4,0,-4140,160,480
1773579245.973397,22.1,29.4,0,-4152,132,404
1773579245.9947324,22.1,29.4,0,-4152,132,404
1773579246.0154061,22.1,29.4,0,-4152,132,404
1773579246.037382,22.1,29.4,0,-4100,88,500
1773579246.0582302,22.1,29.4,0,-4100,88,500
1773579246.0787635,22.1,29.4,0,-4180,152,364
1773579246.0996673,22.1,29.4,0,-4180,152,364
1773579246.1207314,22.1,29.4,0,-4180,152,364
1773579246.1410594,22.1,29.4,0,-4204,-20,520
1773579246.161763,22.1,29.4,0,-4204,-20,520
1773579246.1825607,22.1,29.4,0,-4204,184,320
1773579246.2031627,22.1,29.4,0,-4204,184,320
1773579246.224138,22.1,29.4,0,-4204,184,320
1773579246.2453,22.1,29.4,0,-4200,-16,464
1773579246.2664459,22.1,29.4,0,-4200,-16,464
1773579246.2870517,22.1,29.4,0,-4180,112,420
1773579246.307861,22.1,29.4,0,-4180,112,420
1773579246.3289044,22.1,29.4,0,-4180,112,420
1773579246.3501985,22.1,29.4,0,-4132,124,424
1773579246.3710232,22.1,29.4,0,-4132,124,424
1773579246.3917048,22.1,29.4,0,-4132,124,424
1773579246.4124653,22.1,29.4,0,-4140,72,428
1773579246.433432,22.1,29.4,0,-4140,72,428
1773579246.4550688,22.1,29.4,0,-4124,80,476
1773579246.4759917,22.1,29.4,0,-4124,80,476
1773579246.4966354,22.1,29.4,0,-4124,80,476
1773579246.5194595,22.1,29.4,0,-4060,144,512
1773579246.540336,22.1,29.4,0,-4060,144,512
1773579246.560798,22.1,29.4,0,-4176,128,344
1773579246.5812397,22.1,29.4,0,-4176,128,344
1773579246.6020863,22.1,29.4,0,-4176,128,344
1773579246.6228466,22.1,29.4,0,-4180,32,512
1773579246.643398,22.1,29.4,0,-4180,32,512
1773579246.6639783,22.1,29.4,0,-4180,276,356
1773579246.6849356,22.1,29.4,0,-4180,276,356
1773579246.7054377,22.1,29.4,0,-4180,276,356
1773579246.7258697,22.1,29.4,0,-4228,72,480
1773579246.7466855,22.1,29.4,0,-4228,72,480
1773579246.7673037,22.1,29.4,0,-4156,176,360
1773579246.787931,22.1,29.4,0,-4156,176,360
1773579246.808718,22.1,29.4,0,-4156,176,360
1773579246.829157,22.1,29.4,0,-4116,108,456
1773579246.8498223,22.1,29.4,0,-4116,108,456
1773579246.8709388,22.1,29.4,0,-4180,80,428
1773579246.8913271,22.1,29.4,0,-4180,80,428
1773579246.912543,22.1,29.4,0,-4180,80,428
1773579246.9365306,22.1,29.4,0,-4112,108,416
1773579246.9571526,22.1,29.4,0,-4112,108,416
1773579246.9783745,22.1,29.4,0,-4112,108,416
1773579246.9990928,22.1,29.4,0,-4112,108,416
1773579247.0195153,22.1,29.4,0,-4220,104,496
1773579247.0403636,22.1,29.4,0,-4220,104,496
1773579247.067302,22.1,29.4,0,-4144,92,368
1773579247.0879164,22.1,29.4,0,-4144,92,368
1773579247.1109262,22.1,29.4,0,-4128,156,460
1773579247.1311977,22.1,29.4,0,-4128,156,460
1773579247.1516223,22.1,29.4,0,-4128,156,460
1773579247.1722317,22.1,29.4,0,-4140,68,500
1773579247.1938343,22.1,29.4,0,-4140,68,500
1773579247.2144902,22.1,29.4,0,-4140,112,388
1773579247.2349815,22.1,29.4,0,-4140,112,388
1773579247.2556927,22.1,29.4,0,-4140,112,388
1773579247.2760653,22.1,29.4,0,-4140,40,512
1773579247.2963946,22.1,29.4,0,-4140,40,512
1773579247.3173747,22.1,29.4,0,-4140,40,512
1773579247.337904,22.1,29.4,0,-4188,184,400
1773579247.3584702,22.1,29.4,0,-4188,184,400
1773579247.3792546,22.1,29.4,0,-4200,20,472
1773579247.3998632,22.1,29.4,0,-4200,20,472
1773579247.4208412,22.1,29.4,0,-4200,20,472
1773579247.4413788,22.1,29.4,0,-4164,124,396
1773579247.4618297,22.1,29.4,0,-4164,124,396
1773579247.4823768,22.1,29.4,0,-4196,172,452
1773579247.5029912,22.1,29.4,0,-4196,172,452
1773579247.5237331,22.1,29.4,0,-4196,172,452
1773579247.5446012,22.1,29.4,0,-4128,72,528
1773579247.5657797,22.1,29.4,0,-4128,72,528
1773579247.5863492,22.1,29.4,0,-4128,72,528
1773579247.60745,22.1,29.4,0,-4128,108,420
1773579247.6279593,22.1,29.4,0,-4128,108,420
1773579247.6493065,22.1,29.4,0,-4116,100,524
1773579247.6697867,22.1,29.4,0,-4116,100,524
1773579247.6904862,22.1,29.4,0,-4116,100,524
1773579247.71106,22.1,29.4,0,-4160,160,340
1773579247.7318692,22.1,29.4,0,-4160,160,340
1773579247.752227,22.1,29.4,0,-4148,68,460
1773579247.7728584,22.1,29.4,0,-4148,68,460
1773579247.7935464,22.1,29.4,0,-4148,68,460
1773579247.8145926,22.1,29.4,0,-4192,60,460
1773579247.836705,22.1,29.4,0,-4192,60,460
1773579247.8574224,22.1,29.4,0,-4172,152,480
1773579247.8777368,22.1,29.4,0,-4172,152,480
1773579247.8981957,22.1,29.4,0,-4172,152,480
1773579247.9198296,22.1,29.4,0,-4136,68,472
1773579247.9402227,22.1,29.4,0,-4136,68,472
1773579247.9608743,22.1,29.4,0,-4148,108,376
1773579247.9819832,22.1,29.4,0,-4148,108,376
1773579248.0029225,22.1,29.4,0,-4148,108,376
1773579248.0234666,22.1,29.4,0,-4184,72,468
1773579248.0440776,22.1,29.4,0,-4184,72,468
1773579248.0647786,22.1,29.4,0,-4152,172,400
1773579248.0853531,22.1,29.4,0,-4152,172,400
1773579248.1058629,22.1,29.4,0,-4152,172,400
1773579248.127541,22.1,29.4,0,-4176,80,400
1773579248.1482263,22.1,29.4,0,-4176,80,400
1773579248.169446,22.1,29.4,0,-4176,80,400
1773579248.1899004,22.1,29.4,0,-4136,76,524
1773579248.2107658,22.1,29.4,0,-4136,76,524
1773579248.2313013,22.1,29.4,0,-4140,156,456
1773579248.2522793,22.1,29.4,0,-4140,156,456
1773579248.2727757,22.1,29.4,0,-4140,156,456
1773579248.293151,22.1,29.4,0,-4180,80,464
1773579248.3141727,22.1,29.4,0,-4180,80,464
1773579248.3354309,22.1,29.4,0,-4144,116,372
1773579248.3563197,22.1,29.4,0,-4144,116,372
1773579248.3767803,22.1,29.4,0,-4144,116,372
1773579248.397149,22.1,29.4,0,-4164,92,484
1773579248.419564,22.1,29.4,0,-4164,92,484
1773579248.4400358,22.1,29.4,0,-4180,152,484
1773579248.4608858,22.1,29.4,0,-4180,152,484
1773579248.481482,22.1,29.4,0,-4180,152,484
1773579248.5028365,22.1,29.4,0,-4144,116,424
1773579248.5231767,22.1,29.4,0,-4144,116,424
1773579248.543793,22.1,29.4,0,-4168,44,508
1773579248.5642545,22.1,29.4,0,-4168,44,508
1773579248.5851998,22.1,29.4,0,-4168,44,508
1773579248.605893,22.1,29.4,0,-4188,128,392
1773579248.6271875,22.1,29.4,0,-4188,128,392
1773579248.6480212,22.1,29.4,0,-4152,96,408
1773579248.6687307,22.1,29.4,0,-4152,96,408
1773579248.6894467,22.1,29.4,0,-4152,96,408
1773579248.7102304,22.1,29.4,0,-4156,124,400
1773579248.7306583,22.1,29.4,0,-4156,124,400
1773579248.7521238,22.1,29.4,0,-4156,124,400
1773579248.7728298,22.1,29.4,0,-4184,140,464
1773579248.7933266,22.1,29.4,0,-4184,140,464
1773579248.8139334,22.1,29.4,0,-4116,68,512
1773579248.8352115,22.1,29.4,0,-4116,68,512
1773579248.85595,22.1,29.4,0,-4116,68,512
1773579248.8766794,22.1,29.4,0,-4136,84,392
1773579248.8975177,22.1,29.4,0,-4136,84,392
1773579248.9202578,22.1,29.4,0,-4192,120,444
1773579248.94062,22.1,29.4,0,-4192,120,444
1773579248.961271,22.1,29.4,0,-4192,120,444
1773579248.981941,22.1,29.4,0,-4168,196,340
1773579249.0027473,22.1,29.4,0,-4168,196,340
1773579249.023516,22.1,29.4,0,-4168,196,340
1773579249.04401,22.1,29.4,0,-4172,156,420
1773579249.0650363,22.1,29.4,0,-4172,156,420
1773579249.0859323,22.1,29.4,0,-4172,156,420
1773579249.1063797,22.1,29.4,0,-4172,116,448
1773579249.1267984,22.1,29.4,0,-4172,116,448
1773579249.1474414,22.1,29.4,0,-4172,116,448
1773579249.1699064,22.1,29.4,0,-4164,108,392
1773579249.1903527,22.1,29.4,0,-4164,108,392
1773579249.2113771,22.1,29.4,0,-4204,144,460
1773579249.2324185,22.1,29.4,0,-4204,144,460
1773579249.2532246,22.1,29.4,0,-4204,144,460
1773579249.2735777,22.1,29.4,0,-4120,32,516
1773579249.2941263,22.1,29.4,0,-4120,32,516
1773579249.3150802,22.1,29.4,0,-4148,188,388
1773579249.3361115,22.1,29.4,0,-4148,188,388
1773579249.3573625,22.1,29.4,0,-4148,188,388
1773579249.3779836,22.1,29.4,0,-4188,56,468
1773579249.3991935,22.1,29.4,0,-4188,56,468
1773579249.4199314,22.1,29.4,0,-4160,116,360
1773579249.4402866,22.1,29.4,0,-4160,116,360
1773579249.4607282,22.1,29.4,0,-4160,116,360
1773579249.4818962,22.1,29.4,0,-4164,104,452
1773579249.5023496,22.1,29.4,0,-4164,104,452
1773579249.5249088,22.1,29.4,0,-4164,88,476
1773579249.5455976,22.1,29.4,0,-4164,88,476
1773579249.566329,22.1,29.4,0,-4164,88,476
1773579249.586683,22.1,29.4,0,-4192,184,468
1773579249.6074035,22.1,29.4,0,-4192,184,468
1773579249.628015,22.1,29.4,0,-4156,52,472
1773579249.6482456,22.1,29.4,0,-4156,52,472
1773579249.6699617,22.1,29.4,0,-4156,52,472
1773579249.6907513,22.1,29.4,0,-4184,164,384
1773579249.7111163,22.1,29.4,0,-4184,164,384
1773579249.73151,22.1,29.4,0,-4184,164,384
1773579249.7517354,22.1,29.4,0,-4184,56,460
1773579249.7722635,22.1,29.4,0,-4184,56,460
1773579249.7928042,22.1,29.4,0,-4132,136,376
1773579249.8134258,22.1,29.4,0,-4132,136,376
1773579249.8339303,22.1,29.4,0,-4132,136,376
1773579249.8543477,22.1,29.4,0,-4164,172,444
1773579249.8745923,22.1,29.4,0,-4164,172,444
1773579249.8957095,22.1,29.4,0,-4124,32,528
1773579249.916811,22.1,29.4,0,-4124,32,528
1773579249.9373386,22.1,29.4,0,-4124,32,528
1773579249.9580266,22.1,29.4,0,-4192,124,420
1773579249.9787433,22.1,29.4,0,-4192,124,420
1773579250.0001829,22.1,29.4,0,-4156,76,444
1773579250.0207565,22.1,29.4,0,-4156,76,444
1773579250.041456,22.1,29.4,0,-4156,76,444
1773579250.0620096,22.1,29.4,0,-4164,136,356
1773579250.083165,22.1,29.4,0,-4164,136,356
1773579250.1038897,22.1,29.4,0,-4164,136,356
1773579250.1242754,22.1,29.4,0,-4160,112,468
1773579250.1448412,22.1,29.4,0,-4160,112,468
1773579250.1658716,22.1,29.4,0,-4176,148,516
1773579250.1863236,22.1,29.4,0,-4176,148,516
1773579250.20682,22.1,29.4,0,-4176,148,516
1773579250.2271733,22.1,29.4,0,-4164,200,428
1773579250.2479854,22.1,29.4,0,-4164,200,428
1773579250.269044,22.1,29.4,0,-4140,36,508
1773579250.2895005,22.1,29.4,0,-4140,36,508
1773579250.3103025,22.1,29.4,0,-4140,36,508
1773579250.3311276,22.1,29.4,0,-4176,112,392
1773579250.352501,22.1,29.4,0,-4176,112,392
1773579250.3731163,22.1,29.4,0,-4192,8,424
1773579250.3942134,22.1,29.4,0,-4192,8,424
1773579250.4152546,22.1,29.4,0,-4192,8,424
1773579250.4358857,22.1,29.4,0,-4148,176,388
1773579250.456772,22.1,29.4,0,-4148,176,388
1773579250.4775002,22.1,29.4,0,-4148,176,388
1773579250.4987476,22.1,29.4,0,-4160,140,452
1773579250.5195355,22.1,29.4,0,-4160,140,452
1773579250.5400333,22.1,29.4,0,-4140,44,520
1773579250.5613055,22.1,29.4,0,-4140,44,520
1773579250.5822835,22.1,29.4,0,-4140,44,520
1773579250.6031034,22.1,29.4,0,-4128,100,400
1773579250.6237533,22.1,29.4,0,-4128,100,400
1773579250.6446652,22.1,29.4,0,-4132,100,504
1773579250.6659267,22.1,29.4,0,-4132,100,504
1773579250.6880107,22.1,29.4,0,-4132,100,504
1773579250.7090273,22.1,29.4,0,-4184,184,316
1773579250.7295945,22.1,29.4,0,-4184,184,316
1773579250.7503388,22.1,29.4,0,-4200,40,424
1773579250.7707317,22.1,29.4,0,-4200,40,424
1773579250.7912104,22.1,29.4,0,-4200,40,424
1773579250.81175,22.1,29.4,0,-4152,132,424
1773579250.8324156,22.1,29.4,0,-4152,132,424
1773579250.853221,22.1,29.4,0,-4124,144,472
1773579250.873761,22.1,29.4,0,-4124,144,472
1773579250.8941739,22.1,29.4,0,-4124,144,472
1773579250.914788,22.1,29.4,0,-4124,8,496
1773579250.9351306,22.1,29.4,0,-4124,8,496
1773579250.95555,22.1,29.4,0,-4140,104,384
1773579250.9763393,22.1,29.4,0,-4140,104,384
1773579250.9972203,22.1,29.4,0,-4140,104,384
1773579251.0188622,22.1,29.4,0,-4128,84,524
1773579251.0396283,22.1,29.4,0,-4128,84,524
1773579251.0606198,22.1,29.4,0,-4128,84,524
1773579251.0814762,22.1,29.4,0,-4128,84,524
1773579251.101789,22.1,29.4,0,-4104,44,504
1773579251.1221654,22.1,29.4,0,-4104,44,504
1773579251.1427524,22.1,29.4,0,-4192,160,416
1773579251.1638675,22.1,29.4,0,-4192,160,416
1773579251.1862404,22.1,29.4,0,-4192,160,416
1773579251.206637,22.1,29.4,0,-4124,32,476
1773579251.2272527,22.1,29.4,0,-4124,32,476
1773579251.2479055,22.1,29.4,0,-4172,180,332
1773579251.268424,22.1,29.4,0,-4172,180,332
1773579251.2891166,22.1,29.4,0,-4172,180,332
1773579251.3098752,22.1,29.4,0,-4224,64,460
1773579251.3302877,22.1,29.4,0,-4224,64,460
1773579251.3509502,22.1,29.4,0,-4224,64,460
1773579251.3714192,22.1,29.4,0,-4152,116,396
1773579251.3919702,22.1,29.4,0,-4152,116,396
1773579251.4128935,22.1,29.4,0,-4112,144,400
1773579251.4336207,22.1,29.4,0,-4112,144,400
1773579251.4559603,22.1,29.4,0,-4112,144,400
1773579251.4771626,22.1,29.4,0,-4156,32,500
1773579251.4979997,22.1,29.4,0,-4156,32,500
1773579251.5200539,22.1,29.4,0,-4180,136,436
1773579251.540955,22.1,29.4,0,-4180,136,436
1773579251.5614421,22.1,29.4,0,-4180,136,436
1773579251.582627,22.1,29.4,1,-4120,68,484
1773579251.6034355,22.1,29.4,1,-4120,68,484
1773579251.6241643,22.1,29.4,1,-4172,84,372
1773579251.6453898,22.1,29.4,1,-4172,84,372
1773579251.666235,22.1,29.4,1,-4172,84,372
1773579251.6874201,22.1,29.4,1,-4228,40,480
1773579251.7080326,22.1,29.4,1,-4228,40,480
1773579251.7291458,22.1,29.4,1,-4156,192,356
1773579251.7507923,22.1,29.4,1,-4156,192,356
1773579251.7719479,22.1,29.4,1,-4156,192,356
1773579251.7923825,22.1,29.4,1,-4136,120,404
1773579251.813154,22.1,29.4,1,-4136,120,404
1773579251.8339334,22.1,29.4,1,-4188,36,480
1773579251.8544717,22.1,29.4,1,-4188,36,480
1773579251.874887,22.1,29.4,1,-4188,36,480
1773579251.8956985,22.1,29.4,1,-4164,152,420
1773579251.91663,22.1,29.4,1,-4164,152,420
1773579251.937124,22.1,29.4,0,-4072,140,468
1773579251.9575121,22.1,29.4,0,-4072,140,468
1773579251.9781964,22.1,29.4,0,-4072,140,468
1773579251.9985378,22.1,29.4,0,-4176,148,404
1773579252.0189066,22.1,29.4,0,-4176,148,404
1773579252.0392933,22.1,29.4,0,-4176,148,404
1773579252.0598717,22.1,29.4,0,-4200,-28,504
1773579252.08048,22.1,29.4,0,-4200,-28,504
1773579252.1010053,22.1,29.4,0,-4160,172,360
1773579252.1215057,22.1,29.4,0,-4160,172,360
1773579252.1418877,22.1,29.4,0,-4160,172,360
1773579252.1625948,22.1,29.4,0,-4176,112,456
1773579252.1836462,22.1,29.4,0,-4176,112,456
1773579252.204164,22.1,29.4,0,-4200,136,444
1773579252.2244542,22.1,29.4,0,-4200,136,444
1773579252.2450173,22.1,29.4,0,-4200,136,444
1773579252.2658124,22.1,29.4,0,-4116,116,444
1773579252.2865143,22.1,29.4,0,-4116,116,444
1773579252.3072076,22.1,29.4,0,-4048,84,484
1773579252.3276143,22.1,29.4,0,-4048,84,484
1773579252.3481917,22.1,29.4,0,-4048,84,484
1773579252.368675,22.1,29.4,0,-4184,84,412
1773579252.3891997,22.1,29.4,0,-4184,84,412
1773579252.4101388,22.1,29.4,0,-4184,84,412
1773579252.431939,22.1,29.4,0,-4160,108,484
1773579252.4532232,22.1,29.4,0,-4160,108,484
1773579252.4738605,22.1,29.4,0,-4128,172,364
1773579252.4945118,22.1,29.4,0,-4128,172,364
1773579252.515274,22.1,29.4,0,-4128,172,364
1773579252.5357432,22.1,29.4,0,-4196,-56,484
1773579252.5561068,22.1,29.4,0,-4196,-56,484
1773579252.5772812,22.1,29.4,0,-4192,140,408
1773579252.5981631,22.1,29.4,0,-4192,140,408
1773579252.6185222,22.1,29.4,0,-4192,140,408
1773579252.6391675,22.1,29.4,0,-4160,260,416
1773579252.6601722,22.1,29.4,0,-4160,260,416
1773579252.681021,22.1,29.4,0,-4176,64,472
1773579252.7036574,22.1,29.4,0,-4176,64,472
1773579252.7243977,22.1,29.4,0,-4176,64,472
1773579252.7450945,22.1,29.4,0,-4164,64,452
1773579252.766352,22.1,29.4,0,-4164,64,452
1773579252.787201,22.1,29.4,0,-4100,72,524
1773579252.8078249,22.1,29.4,0,-4100,72,524
1773579252.8285673,22.1,29.4,0,-4100,72,524
1773579252.849395,22.1,29.4,0,-4184,192,356
1773579252.8705857,22.1,29.4,0,-4184,192,356
1773579252.8913667,22.1,29.4,0,-4184,36,484
1773579252.9134517,22.1,29.4,0,-4184,36,484
1773579252.9345899,22.1,29.4,0,-4184,36,484
1773579252.9554968,22.1,29.4,0,-4116,132,404
1773579252.975966,22.1,29.4,0,-4116,132,404
1773579252.9967506,22.1,29.4,0,-4116,132,404
1773579253.0174115,22.1,29.4,0,-4160,68,472
1773579253.0384765,22.1,29.4,0,-4160,68,472
1773579253.0592399,22.1,29.4,0,-4196,100,420
1773579253.0806932,22.1,29.4,0,-4196,100,420
1773579253.101824,22.1,29.4,0,-4196,100,420
1773579253.1226509,22.1,29.4,0,-4196,100,420
1773579253.14417,22.1,29.4,0,-4200,272,304
1773579253.1660066,22.1,29.4,0,-4200,272,304
1773579253.1867957,22.1,29.4,0,-4192,32,424
1773579253.2074397,22.1,29.4,0,-4192,32,424
1773579253.2281003,22.1,29.4,0,-4192,32,424
1773579253.248799,22.1,29.4,0,-4172,80,428
1773579253.2692864,22.1,29.4,0,-4172,80,428
1773579253.2898774,22.1,29.4,0,-4156,208,436
1773579253.3105085,22.1,29.4,0,-4156,208,436
1773579253.3311853,22.1,29.4,0,-4156,208,436
1773579253.3522217,22.1,29.4,0,-4076,76,464
1773579253.3725944,22.1,29.4,0,-4076,76,464
1773579253.3930962,22.1,29.4,0,-4076,76,464
1773579253.4137063,22.1,29.4,0,-4156,72,456
1773579253.4347548,22.1,29.4,0,-4156,72,456
1773579253.4555037,22.1,29.4,0,-4128,60,528
1773579253.476202,22.1,29.4,0,-4128,60,528
1773579253.4973683,22.1,29.4,0,-4128,60,528
1773579253.518562,22.1,29.4,0,-4172,196,368
1773579253.539191,22.1,29.4,0,-4172,196,368
1773579253.559729,22.1,29.4,0,-4208,-20,476
1773579253.5804152,22.1,29.4,0,-4208,-20,476
1773579253.602567,22.1,29.4,0,-4208,-20,476
1773579253.6228125,22.1,29.4,0,-4184,140,396
1773579253.643123,22.1,29.4,0,-4184,140,396
1773579253.6636107,22.1,29.4,0,-4168,200,400
1773579253.6842775,22.1,29.4,0,-4168,200,400
1773579253.7045732,22.1,29.4,0,-4168,200,400
1773579253.7249603,22.1,29.4,0,-4140,44,464
1773579253.7455308,22.1,29.4,0,-4140,44,464
1773579253.76588,22.1,29.4,0,-4180,92,456
1773579253.7862246,22.1,29.4,0,-4180,92,456
1773579253.807057,22.1,29.4,0,-4180,92,456
1773579253.8274276,22.1,29.4,0,-4132,128,516
1773579253.847546,22.1,29.4,0,-4132,128,516
1773579253.8699543,22.1,29.4,0,-4132,128,516
1773579253.8903832,22.1,29.4,0,-4168,96,408
1773579253.9109643,22.1,29.4,0,-4168,96,408
1773579253.9313695,22.1,29.4,0,-4204,-12,468
1773579253.9528565,22.1,29.4,0,-4204,-12,468
1773579253.9735434,22.1,29.4,0,-4204,-12,468
1773579253.9940798,22.1,29.4,0,-4180,224,388
1773579254.014527,22.1,29.4,0,-4180,224,388
1773579254.0369308,22.1,29.4,0,-4152,140,376
1773579254.0575478,22.1,29.4,0,-4152,140,376
1773579254.0781813,22.1,29.4,0,-4152,140,376
1773579254.0987942,22.1,29.4,0,-4180,96,472
1773579254.1199243,22.1,29.4,0,-4180,96,472
1773579254.1406271,22.1,29.4,0,-4180,176,476
1773579254.1612825,22.1,29.4,0,-4180,176,476
1773579254.1820424,22.1,29.4,0,-4180,176,476
1773579254.2024558,22.1,29.4,0,-4056,76,508
1773579254.2235117,22.1,29.4,0,-4056,76,508
1773579254.2438798,22.1,29.4,0,-4196,128,408
1773579254.2647429,22.1,29.4,0,-4196,128,408
1773579254.2864847,22.1,29.4,0,-4196,128,408
1773579254.3073003,22.1,29.4,0,-4232,76,484
1773579254.328045,22.1,29.4,0,-4232,76,484
1773579254.3486423,22.1,29.4,0,-4232,76,484
1773579254.3690217,22.1,29.4,0,-4128,156,388
1773579254.389314,22.1,29.4,0,-4128,156,388
1773579254.4097571,22.1,29.4,0,-4144,164,404
1773579254.4305024,22.1,29.4,0,-4144,164,404
1773579254.4525049,22.1,29.4,0,-4144,164,404
1773579254.4730635,22.1,29.4,0,-4216,108,484
1773579254.4938757,22.1,29.4,0,-4216,108,484
1773579254.5143096,22.1,29.4,0,-4164,108,456
1773579254.5355375,22.1,29.4,0,-4164,108,456
1773579254.5562785,22.1,29.4,0,-4164,108,456
1773579254.5765998,22.1,29.4,0,-4108,88,484
1773579254.5977728,22.1,29.4,0,-4108,88,484
1773579254.6193695,22.1,29.4,0,-4200,136,396
1773579254.639977,22.1,29.4,0,-4200,136,396
1773579254.660799,22.1,29.4,0,-4200,136,396
1773579254.681718,22.1,29.4,0,-4188,12,476
1773579254.7021015,22.1,29.4,0,-4188,12,476
1773579254.722584,22.1,29.4,0,-4156,172,364
1773579254.74343,22.1,29.4,0,-4156,172,364
1773579254.763886,22.1,29.4,0,-4156,172,364
1773579254.7857835,22.1,29.4,0,-4152,124,388
1773579254.8062313,22.1,29.4,0,-4152,124,388
1773579254.8266375,22.1,29.4,0,-4152,124,388
1773579254.8486075,22.1,29.4,0,-4208,64,500
1773579254.870205,22.1,29.4,0,-4208,64,500
1773579254.8905146,22.1,29.4,0,-4156,128,452
1773579254.9113104,22.1,29.4,0,-4156,128,452
1773579254.931988,22.1,29.4,0,-4156,128,452
1773579254.9536865,22.1,29.4,0,-4072,148,464
1773579254.9741807,22.1,29.4,0,-4072,148,464
1773579254.9949477,22.1,29.4,0,-4136,96,408
1773579255.0153859,22.1,29.4,0,-4136,96,408
1773579255.0361507,22.1,29.4,0,-4136,96,408
1773579255.0565653,22.1,29.4,0,-4176,0,488
1773579255.0772638,22.1,29.4,0,-4176,0,488
1773579255.0983157,22.1,29.4,0,-4160,216,368
1773579255.1193233,22.1,29.4,0,-4160,216,368
1773579255.1397681,22.1,29.4,0,-4160,216,368
1773579255.1604686,22.1,29.4,0,-4160,216,368
1773579255.182043,22.1,29.3,0,-4188,128,352
1773579255.204101,22.1,29.3,0,-4188,128,352
1773579255.224818,22.1,29.3,0,-4160,20,480
1773579255.2453616,22.1,29.3,0,-4160,20,480
1773579255.2663043,22.1,29.3,0,-4160,20,480
1773579255.2868598,22.1,29.3,0,-4156,180,360
1773579255.3073575,22.1,29.3,0,-4156,180,360
1773579255.3285007,22.1,29.3,0,-4156,180,360
1773579255.3487682,22.1,29.3,0,-4164,128,480
1773579255.3693004,22.1,29.3,0,-4164,128,480
1773579255.391689,22.1,29.3,0,-4160,68,420
1773579255.4119782,22.1,29.3,0,-4160,68,420
1773579255.4323678,22.1,29.3,0,-4160,68,420
1773579255.4527006,22.1,29.3,0,-4120,112,420
1773579255.4732172,22.1,29.3,0,-4120,112,420
1773579255.4936433,22.1,29.3,0,-4088,168,524
1773579255.5138986,22.1,29.3,0,-4088,168,524
1773579255.5353506,22.1,29.3,0,-4088,168,524
1773579255.555934,22.1,29.3,0,-4140,92,360
1773579255.576466,22.1,29.3,0,-4140,92,360
1773579255.5968096,22.1,29.3,0,-4128,24,484
1773579255.6169932,22.1,29.3,0,-4128,24,484
1773579255.6373131,22.1,29.3,0,-4128,24,484
1773579255.6576252,22.1,29.3,0,-4188,252,352
1773579255.6780581,22.1,29.3,0,-4188,252,352
1773579255.6986353,22.1,29.3,0,-4188,252,352
1773579255.7193925,22.1,29.3,0,-4184,76,464
1773579255.7400923,22.1,29.3,0,-4184,76,464
1773579255.7604961,22.1,29.3,0,-4160,68,404
1773579255.7809124,22.1,29.3,0,-4160,68,404
1773579255.8015976,22.1,29.3,0,-4160,68,404
1773579255.8222861,22.1,29.3,0,-4120,132,428
1773579255.843482,22.1,29.3,0,-4120,132,428
1773579255.8644345,22.1,29.3,0,-4144,168,504
1773579255.8864312,22.1,29.3,0,-4144,168,504
1773579255.9069595,22.1,29.3,0,-4144,168,504
1773579255.9282115,22.1,29.3,0,-4168,124,372
1773579255.9490938,22.1,29.3,0,-4168,124,372
1773579255.9694874,22.1,29.3,0,-4084,4,492
1773579255.9902527,22.1,29.3,0,-4084,4,492
1773579256.0108585,22.1,29.3,0,-4084,4,492
1773579256.031376,22.1,29.3,0,-4188,196,408
1773579256.0536315,22.1,29.3,0,-4188,196,408
1773579256.074164,22.1,29.3,0,-4204,56,448
1773579256.0951169,22.1,29.3,0,-4204,56,448
1773579256.115625,22.1,29.3,0,-4204,56,448
1773579256.1366603,22.1,29.3,0,-4160,176,344
1773579256.1573014,22.1,29.3,0,-4160,176,344
1773579256.1778152,22.1,29.3,0,-4160,176,344
1773579256.198726,22.1,29.3,0,-4152,112,408
1773579256.2191,22.1,29.3,0,-4152,112,408
1773579256.2396886,22.1,29.3,0,-4192,128,476
1773579256.260174,22.1,29.3,0,-4192,128,476
1773579256.2812982,22.1,29.3,0,-4192,128,476
1773579256.3018832,22.1,29.3,0,-4184,164,396
1773579256.3224592,22.1,29.3,0,-4184,164,396
1773579256.3431761,22.1,29.3,0,-4056,72,488
1773579256.3638344,22.1,29.3,0,-4056,72,488
1773579256.3844218,22.1,29.3,0,-4056,72,488
1773579256.4053173,22.1,29.3,0,-4188,116,428
1773579256.4261136,22.1,29.3,0,-4188,116,428
1773579256.446699,22.1,29.3,0,-4208,-16,460
1773579256.4670722,22.1,29.3,0,-4208,-16,460
1773579256.4883323,22.1,29.3,0,-4208,-16,460
1773579256.5086522,22.1,29.3,0,-4152,212,368
1773579256.5289345,22.1,29.3,0,-4152,212,368
1773579256.5494874,22.1,29.3,0,-4152,212,368
1773579256.5699263,22.1,29.3,0,-4124,88,448
1773579256.5904593,22.1,29.3,0,-4124,88,448
1773579256.6109715,22.1,29.3,0,-4176,36,424
1773579256.631423,22.1,29.3,0,-4176,36,424
1773579256.6523683,22.1,29.3,0,-4176,36,424
1773579256.6729972,22.1,29.3,0,-4132,164,444
1773579256.6934943,22.1,29.3,0,-4132,164,444
1773579256.714134,22.1,29.3,0,-4076,156,508
1773579256.7364094,22.1,29.3,0,-4076,156,508
1773579256.757175,22.1,29.3,0,-4076,156,508
1773579256.7780473,22.1,29.3,0,-4172,88,392
1773579256.7985337,22.1,29.3,0,-4172,88,392
1773579256.8225427,22.1,29.3,0,-4128,-24,496
1773579256.8432403,22.1,29.3,0,-4128,-24,496
1773579256.863517,22.1,29.3,0,-4128,-24,496
1773579256.8855011,22.1,29.3,0,-4180,232,332
1773579256.9057722,22.1,29.3,0,-4180,232,332
1773579256.9260042,22.1,29.3,0,-4204,120,460
1773579256.9465435,22.1,29.3,0,-4204,120,460
1773579256.967188,22.1,29.3,0,-4204,120,460
1773579256.98783,22.1,29.3,0,-4168,112,404
1773579257.0085115,22.1,29.3,0,-4168,112,404
1773579257.0290759,22.1,29.3,0,-4168,112,404
1773579257.0498738,22.1,29.3,0,-4128,116,412
1773579257.0707276,22.1,29.3,0,-4128,116,412
1773579257.091196,22.1,29.3,0,-4156,108,488
1773579257.111895,22.1,29.3,0,-4156,108,488
1773579257.1327572,22.1,29.3,0,-4156,108,488
1773579257.1535275,22.1,29.3,0,-4180,120,420
1773579257.174438,22.1,29.3,0,-4180,120,420
1773579257.195575,22.1,29.3,0,-4180,120,420
1773579257.2167273,22.1,29.2,0,-4160,164,424
1773579257.2376373,22.1,29.2,0,-4160,164,424
1773579257.2579348,22.1,29.2,0,-4160,164,424
1773579257.2790651,22.1,29.2,0,-4196,84,484
1773579257.299918,22.1,29.2,0,-4196,84,484
1773579257.320926,22.1,29.2,0,-4164,140,412
1773579257.3414905,22.1,29.2,0,-4164,140,412
1773579257.3617933,22.1,29.2,0,-4164,140,412
1773579257.3840525,22.1,29.2,0,-4092,116,544
1773579257.4048097,22.1,29.2,0,-4092,116,544
1773579257.4259791,22.1,29.2,0,-4092,116,544
1773579257.4468758,22.1,29.2,0,-4168,136,396
1773579257.4673338,22.1,29.2,0,-4168,136,396
1773579257.4876685,22.1,29.2,0,-4204,-36,456
1773579257.5081463,22.1,29.2,0,-4204,-36,456
1773579257.5292192,22.1,29.2,0,-4204,-36,456
1773579257.5528424,22.1,29.2,0,-4176,224,412
1773579257.5736566,22.1,29.2,0,-4176,224,412
1773579257.5948095,22.1,29.2,0,-4164,128,436
1773579257.6160345,22.1,29.2,0,-4164,128,436
1773579257.6369233,22.1,29.2,0,-4164,128,436
1773579257.6576626,22.1,29.2,0,-4200,68,412
1773579257.6780374,22.1,29.2,0,-4200,68,412
1773579257.6989996,22.1,29.2,0,-4140,160,432
1773579257.719571,22.1,29.2,0,-4140,160,432
1773579257.74006,22.1,29.2,0,-4140,160,432
1773579257.7671652,22.1,29.2,0,-4112,160,524
1773579257.7878351,22.1,29.2,0,-4112,160,524
1773579257.8155942,22.1,29.2,0,-4184,116,384
1773579257.8362591,22.1,29.2,0,-4184,116,384
1773579257.857144,22.1,29.2,0,-4184,28,488
1773579257.8776784,22.1,29.2,0,-4184,28,488
1773579257.8981476,22.1,29.2,0,-4184,28,488
1773579257.9213557,22.1,29.2,0,-4132,196,364
1773579257.9428663,22.1,29.2,0,-4132,196,364
1773579257.9634643,22.1,29.2,0,-4164,60,480
1773579257.9864285,22.1,29.2,0,-4164,60,480
1773579258.0068395,22.1,29.2,0,-4164,60,480
1773579258.027502,22.1,29.2,0,-4168,88,416
1773579258.0481696,22.1,29.2,0,-4168,88,416
1773579258.0683215,22.1,29.2,0,-4120,184,424
1773579258.089144,22.1,29.2,0,-4120,184,424
1773579258.109987,22.1,29.2,0,-4120,184,424
1773579258.1306274,22.1,29.2,0,-4080,116,532
1773579258.152394,22.1,29.2,0,-4080,116,532
1773579258.172911,22.1,29.2,0,-4176,108,384
1773579258.1936715,22.1,29.2,0,-4176,108,384
1773579258.2142327,22.1,29.2,0,-4176,108,384
1773579258.2349865,22.1,29.2,0,-4172,64,480
1773579258.2553372,22.1,29.2,0,-4172,64,480
1773579258.275644,22.1,29.2,0,-4164,188,372
1773579258.2964818,22.1,29.2,0,-4164,188,372
1773579258.3176136,22.1,29.2,0,-4164,188,372
1773579258.3393717,22.1,29.2,0,-4196,36,480
1773579258.360332,22.1,29.2,0,-4196,36,480
1773579258.3809793,22.1,29.2,0,-4196,36,480
1773579258.4017906,22.1,29.2,0,-4156,88,408
1773579258.4224663,22.1,29.2,0,-4156,88,408
1773579258.4429262,22.1,29.2,0,-4136,132,420
1773579258.4634101,22.1,29.2,0,-4136,132,420
1773579258.4846046,22.1,29.2,0,-4136,132,420
1773579258.505357,22.1,29.2,0,-4120,100,524
1773579258.526111,22.1,29.2,0,-4120,100,524
1773579258.5470395,22.1,29.2,0,-4188,148,388
1773579258.5683782,22.1,29.2,0,-4188,148,388
1773579258.5889938,22.1,29.2,0,-4188,148,388
1773579258.609592,22.1,29.2,0,-4084,20,496
1773579258.6310415,22.1,29.2,0,-4084,20,496
1773579258.6529808,22.1,29.2,0,-4172,164,348
1773579258.6734245,22.1,29.2,0,-4172,164,348
1773579258.6954188,22.1,29.2,0,-4172,164,348
1773579258.7163978,22.1,29.2,0,-4188,84,448
1773579258.7389808,22.1,29.2,0,-4188,84,448
1773579258.7598777,22.1,29.2,0,-4168,40,408
1773579258.7806091,22.1,29.2,0,-4168,40,408
1773579258.8016906,22.1,29.2,0,-4168,40,408
1773579258.8220124,22.1,29.2,0,-4136,136,460
1773579258.8431826,22.1,29.2,0,-4136,136,460
1773579258.8641357,22.1,29.2,0,-4144,140,500
1773579258.8855355,22.1,29.2,0,-4144,140,500
1773579258.9060411,22.1,29.2,0,-4144,140,500
1773579258.9267907,22.1,29.2,0,-4188,112,360
1773579258.9479153,22.1,29.2,0,-4188,112,360
1773579258.968553,22.1,29.2,0,-4112,4,524
1773579258.9892151,22.1,29.2,0,-4112,4,524
1773579259.0102549,22.1,29.2,0,-4112,4,524
1773579259.0319185,22.1,29.2,0,-4224,208,400
1773579259.052204,22.1,29.2,0,-4224,208,400
1773579259.0729718,22.1,29.2,0,-4208,56,444
1773579259.0936563,22.1,29.2,0,-4208,56,444
1773579259.1144981,22.1,29.2,0,-4208,56,444
1773579259.1349235,22.1,29.2,0,-4168,76,404
1773579259.1552606,22.1,29.2,0,-4168,76,404
1773579259.1759887,22.1,29.2,0,-4168,76,404
1773579259.1966794,22.1,29.2,0,-4160,172,416
1773579259.2179427,22.1,29.2,0,-4160,172,416
1773579259.2386193,22.1,29.2,0,-4160,172,416
1773579259.2589922,22.1,29.0,0,-4216,36,440
1773579259.279532,22.1,29.0,0,-4216,36,440
1773579259.3001196,22.1,29.0,0,-4216,36,440
1773579259.3206196,22.1,29.0,0,-4124,168,388
1773579259.3409815,22.1,29.0,0,-4124,168,388
1773579259.3616514,22.1,29.0,0,-4124,168,388
1773579259.385259,22.1,29.0,0,-4148,108,412
1773579259.4058287,22.1,29.0,0,-4148,108,412
1773579259.4264503,22.1,29.0,0,-4192,108,432
1773579259.4466689,22.1,29.0,0,-4192,108,432
1773579259.4674346,22.1,29.0,0,-4192,108,432
1773579259.487775,22.1,29.0,0,-4160,156,432
1773579259.5083447,22.1,29.0,0,-4160,156,432
1773579259.528984,22.1,29.0,0,-4104,76,520
1773579259.5498273,22.1,29.0,0,-4104,76,520
1773579259.570414,22.1,29.0,0,-4104,76,520
1773579259.5914922,22.1,29.0,0,-4160,104,368
1773579259.6123345,22.1,29.0,0,-4160,104,368
1773579259.6331701,22.1,29.0,0,-4204,16,468
1773579259.6535127,22.1,29.0,0,-4204,16,468
1773579259.673883,22.1,29.0,0,-4204,16,468
1773579259.694749,22.1,29.0,0,-4144,164,412
1773579259.7155325,22.1,29.0,0,-4144,164,412
1773579259.7358994,22.1,29.0,0,-4120,60,480
1773579259.756829,22.1,29.0,0,-4120,60,480
1773579259.7777185,22.1,29.0,0,-4120,60,480
1773579259.7985244,22.1,29.0,0,-4212,88,412
1773579259.819242,22.1,29.0,0,-4212,88,412
1773579259.8401525,22.1,29.0,0,-4212,88,412
1773579259.8613794,22.1,29.0,0,-4124,172,480
1773579259.8830268,22.1,29.0,0,-4124,172,480
1773579259.9034448,22.1,29.0,0,-4092,140,516
1773579259.9240303,22.1,29.0,0,-4092,140,516
1773579259.944523,22.1,29.0,0,-4092,140,516
1773579259.9650433,22.1,29.0,0,-4176,76,340
1773579259.9864647,22.1,29.0,0,-4176,76,340
1773579260.0069358,22.1,29.0,0,-4176,56,520
1773579260.028578,22.1,29.0,0,-4176,56,520
1773579260.0495005,22.1,29.0,0,-4176,56,520
1773579260.070176,22.1,29.0,0,-4168,268,324
1773579260.090928,22.1,29.0,0,-4168,268,324
1773579260.111741,22.1,29.0,0,-4148,48,448
1773579260.1320937,22.1,29.0,0,-4148,48,448
1773579260.1525667,22.1,29.0,0,-4148,48,448
1773579260.1731987,22.1,29.0,0,-4176,56,424
1773579260.193612,22.1,29.0,0,-4176,56,424
1773579260.2143438,22.1,29.0,0,-4152,208,444
1773579260.2357738,22.1,29.0,0,-4152,208,444
1773579260.2560432,22.1,29.0,0,-4152,208,444
1773579260.2764792,22.1,29.0,0,-4084,104,508
1773579260.2968469,22.1,29.0,0,-4084,104,508
1773579260.3182228,22.1,29.0,0,-4084,104,508
1773579260.339145,22.1,29.0,0,-4136,24,372
1773579260.3596866,22.1,29.0,0,-4136,24,372
1773579260.3799682,22.1,29.0,0,-4140,28,500
1773579260.4004543,22.1,29.0,0,-4140,28,500
1773579260.4207342,22.1,29.0,0,-4140,28,500
1773579260.44133,22.1,29.0,0,-4168,260,372
1773579260.4618258,22.1,29.0,0,-4168,260,372
1773579260.4825013,22.1,29.0,0,-4216,0,472
1773579260.5029402,22.1,29.0,0,-4216,0,472
1773579260.5234706,22.1,29.0,0,-4216,0,472
1773579260.5437794,22.1,29.0,0,-4160,76,400
1773579260.5643554,22.1,29.0,0,-4160,76,400
1773579260.5855823,22.1,29.0,0,-4176,184,436
1773579260.6058538,22.1,29.0,0,-4176,184,436
1773579260.6262615,22.1,29.0,0,-4176,184,436
1773579260.648196,22.1,29.0,0,-4172,128,452
1773579260.671376,22.1,29.0,0,-4172,128,452
1773579260.6917486,22.1,29.0,0,-4128,92,412
1773579260.712525,22.1,29.0,0,-4128,92,412
1773579260.7335868,22.1,29.0,0,-4128,92,412
1773579260.754267,22.1,29.0,0,-4120,48,560
1773579260.775349,22.1,29.0,0,-4120,48,560
1773579260.7959013,22.1,29.0,0,-4192,196,384
1773579260.8167403,22.1,29.0,0,-4192,196,384
1773579260.837515,22.1,29.0,0,-4192,196,384
1773579260.8579183,22.1,29.0,0,-4200,-24,468
1773579260.8788097,22.1,29.0,0,-4200,-24,468
1773579260.8992832,22.1,29.0,0,-4200,-24,468
1773579260.9198925,22.1,29.0,0,-4164,120,400
1773579260.9407268,22.1,29.0,0,-4164,120,400
1773579260.9611359,22.1,29.0,0,-4184,156,448
1773579260.981617,22.1,29.0,0,-4184,156,448
1773579261.0028203,22.1,29.0,0,-4184,156,448
1773579261.0231035,22.1,29.0,0,-4220,116,424
1773579261.0444129,22.1,29.0,0,-4220,116,424
1773579261.0648801,22.1,29.0,0,-4116,84,440
1773579261.0855837,22.1,29.0,0,-4116,84,440
1773579261.1063821,22.1,29.0,0,-4116,84,440
1773579261.1270368,22.1,29.0,0,-4108,100,512
1773579261.1479936,22.1,29.0,0,-4108,100,512
1773579261.1695018,22.1,29.0,0,-4180,188,364
1773579261.1904714,22.1,29.0,0,-4180,188,364
1773579261.2112982,22.1,29.0,0,-4180,188,364
1773579261.2316754,22.1,29.0,0,-4196,16,480
1773579261.2521067,22.1,29.0,0,-4196,16,480
1773579261.2724514,22.1,29.0,0,-4196,16,480
1773579261.2930171,22.1,29.0,0,-4196,16,480
1773579261.3139336,22.1,28.9,0,-4072,60,504
1773579261.3353038,22.1,28.9,0,-4072,60,504
1773579261.3559878,22.1,28.9,0,-4200,116,360
1773579261.3768559,22.1,28.9,0,-4200,116,360
1773579261.3977046,22.1,28.9,0,-4200,116,360
1773579261.4183552,22.1,28.9,0,-4188,60,512
1773579261.439391,22.1,28.9,0,-4188,60,512
1773579261.4600077,22.1,28.9,0,-4152,196,328
1773579261.4815733,22.1,28.9,0,-4152,196,328
1773579261.5032842,22.1,28.9,0,-4152,196,328
1773579261.52377,22.1,28.9,0,-4192,92,460
1773579261.5446975,22.1,28.9,0,-4192,92,460
1773579261.5653968,22.1,28.9,0,-4156,100,436
1773579261.5855427,22.1,28.9,0,-4156,100,436
1773579261.6064415,22.1,28.9,0,-4156,100,436
1773579261.6272192,22.1,28.9,0,-4140,156,456
1773579261.6477928,22.1,28.9,0,-4140,156,456
1773579261.668847,22.1,28.9,0,-4140,156,456
1773579261.6890993,22.1,28.9,0,-4068,104,488
1773579261.709555,22.1,28.9,0,-4068,104,488
1773579261.7302144,22.1,28.9,0,-4140,100,416
1773579261.7535808,22.1,28.9,0,-4140,100,416
1773579261.7750518,22.1,28.9,0,-4140,100,416
1773579261.7980905,22.1,28.9,0,-4128,52,496
1773579261.8202088,22.1,28.9,0,-4128,52,496
1773579261.8419878,22.1,28.9,0,-4168,192,336
1773579261.862673,22.1,28.9,0,-4168,192,336
1773579261.8835275,22.1,28.9,0,-4192,112,448
1773579261.9045866,22.1,28.9,0,-4192,112,448
1773579261.9255223,22.1,28.9,0,-4192,112,448
1773579261.9465597,22.1,28.9,0,-4152,56,436
1773579261.969121,22.1,28.9,0,-4152,56,436
1773579261.9915123,22.1,28.9,0,-4132,172,448
1773579262.0119603,22.1,28.9,0,-4132,172,448
1773579262.0328724,22.1,28.9,0,-4132,172,448
1773579262.0535407,22.1,28.9,0,-4144,128,480
1773579262.0741744,22.1,28.9,0,-4144,128,480
1773579262.0945523,22.1,28.9,0,-4172,84,424
1773579262.1154742,22.1,28.9,0,-4172,84,424
1773579262.1379144,22.1,28.9,0,-4172,84,424
1773579262.1590111,22.1,28.9,1,-4148,68,524
1773579262.179544,22.1,28.9,1,-4148,68,524
1773579262.2002022,22.1,28.9,1,-4148,68,524
1773579262.2213626,22.1,28.9,1,-4188,220,368
1773579262.2418041,22.1,28.9,1,-4188,220,368
1773579262.262149,22.1,28.9,1,-4192,16,440
1773579262.283248,22.1,28.9,1,-4192,16,440
1773579262.3038363,22.1,28.9,1,-4192,16,440
1773579262.3243732,22.1,28.9,1,-4164,100,412
1773579262.345381,22.1,28.9,1,-4164,100,412
1773579262.3660367,22.1,28.9,0,-4164,176,424
1773579262.3869867,22.1,28.9,0,-4164,176,424
1773579262.4087005,22.1,28.9,0,-4164,176,424
1773579262.4293773,22.1,28.9,0,-4140,84,456
1773579262.450175,22.1,28.9,0,-4140,84,456
1773579262.4707432,22.1,28.9,0,-4144,64,428
1773579262.4911907,22.1,28.9,0,-4144,64,428
1773579262.512407,22.1,28.9,0,-4144,64,428
1773579262.5336564,22.1,28.9,0,-4152,96,536
1773579262.5541162,22.1,28.9,0,-4152,96,536
1773579262.5751605,22.1,28.9,0,-4188,176,360
1773579262.5959988,22.1,28.9,0,-4188,176,360
1773579262.6167388,22.1,28.9,0,-4188,176,360
1773579262.6374786,22.1,28.9,0,-4204,-28,460
1773579262.6579375,22.1,28.9,0,-4204,-28,460
1773579262.6787481,22.1,28.9,0,-4160,152,400
1773579262.6995711,22.1,28.9,0,-4160,152,400
1773579262.7201676,22.1,28.9,0,-4160,152,400
1773579262.7406132,22.1,28.9,0,-4180,188,412
1773579262.761285,22.1,28.9,0,-4180,188,412
1773579262.7815862,22.1,28.9,0,-4180,188,412
1773579262.8018878,22.1,28.9,0,-4188,68,452
1773579262.8225083,22.1,28.9,0,-4188,68,452
1773579262.8429737,22.1,28.9,0,-4164,80,460
1773579262.8635538,22.1,28.9,0,-4164,80,460
1773579262.8843582,22.1,28.9,0,-4164,80,460
1773579262.904974,22.1,28.9,0,-4124,136,532
1773579262.9256742,22.1,28.9,0,-4124,136,532
1773579262.9460707,22.1,28.9,0,-4172,140,392
1773579262.9666684,22.1,28.9,0,-4172,140,392
1773579262.9869835,22.1,28.9,0,-4172,140,392
1773579263.0076087,22.1,28.9,0,-4184,-44,464
1773579263.0280983,22.1,28.9,0,-4184,-44,464
1773579263.048485,22.1,28.9,0,-4184,-44,464
1773579263.0693817,22.1,28.9,0,-4172,180,424
1773579263.0900235,22.1,28.9,0,-4172,180,424
1773579263.110796,22.1,28.9,0,-4172,164,448
1773579263.131494,22.1,28.9,0,-4172,164,448
1773579263.1523333,22.1,28.9,0,-4172,164,448
1773579263.172828,22.1,28.9,0,-4196,40,464
1773579263.1933868,22.1,28.9,0,-4196,40,464
1773579263.2141104,22.1,28.9,0,-4128,84,468
1773579263.23471,22.1,28.9,0,-4128,84,468
1773579263.255375,22.1,28.9,0,-4128,84,468
1773579263.2757916,22.1,28.9,0,-4112,160,476
1773579263.2964673,22.1,28.9,0,-4112,160,476
1773579263.3168488,22.1,28.9,0,-4112,160,476
1773579263.3371124,22.1,28.9,0,-4112,160,476
1773579263.3576539,22.1,28.8,0,-4216,176,428
1773579263.3782346,22.1,28.8,0,-4216,176,428
1773579263.398654,22.1,28.8,0,-4120,156,452
1773579263.4195805,22.1,28.8,0,-4120,156,452
1773579263.4403517,22.1,28.8,0,-4120,156,452
1773579263.4611547,22.1,28.8,0,-4060,16,496
1773579263.4815888,22.1,28.8,0,-4060,16,496
1773579263.5017326,22.1,28.8,0,-4196,144,404
1773579263.5222085,22.1,28.8,0,-4196,144,404
1773579263.5425417,22.1,28.8,0,-4196,144,404
1773579263.5629094,22.1,28.8,0,-4128,28,500
1773579263.5831692,22.1,28.8,0,-4128,28,500
1773579263.603741,22.1,28.8,0,-4128,28,500
1773579263.6242776,22.1,28.8,0,-4148,160,320
1773579263.645394,22.1,28.8,0,-4148,160,320
1773579263.6660392,22.1,28.8,0,-4204,56,476
1773579263.6868932,22.1,28.8,0,-4204,56,476
1773579263.707935,22.1,28.8,0,-4204,56,476
1773579263.7290306,22.1,28.8,0,-4180,144,416
1773579263.7496083,22.1,28.8,0,-4180,144,416
1773579263.7704492,22.1,28.8,0,-4136,188,432
1773579263.7909372,22.1,28.8,0,-4136,188,432
1773579263.8119538,22.1,28.8,0,-4136,188,432
1773579263.8329604,22.1,28.8,0,-4100,28,448
1773579263.8560133,22.1,28.8,0,-4100,28,448
1773579263.876516,22.1,28.8,0,-4176,140,436
1773579263.8969705,22.1,28.8,0,-4176,140,436
1773579263.918982,22.1,28.8,0,-4176,140,436
1773579263.9396718,22.1,28.8,0,-4140,132,492
1773579263.9604108,22.1,28.8,0,-4140,132,492
1773579263.9808016,22.1,28.8,0,-4144,124,368
1773579264.002147,22.1,28.8,0,-4144,124,368
1773579264.0225933,22.1,28.8,0,-4144,124,368
1773579264.0429332,22.1,28.8,0,-4212,0,492
1773579264.0632339,22.1,28.8,0,-4212,0,492
1773579264.0839505,22.1,28.8,0,-4180,184,364
1773579264.1045527,22.1,28.8,0,-4180,184,364
1773579264.1253166,22.1,28.8,0,-4180,184,364
1773579264.1461165,22.1,28.8,0,-4160,180,392
1773579264.1670117,22.1,28.8,0,-4160,180,392
1773579264.1879754,22.1,28.8,0,-4160,180,392
1773579264.2091973,22.1,28.8,0,-4184,64,496
1773579264.2300568,22.1,28.8,0,-4184,64,496
1773579264.253855,22.1,28.8,0,-4160,152,444
1773579264.2742724,22.1,28.8,0,-4160,152,444
1773579264.2947793,22.1,28.8,0,-4160,152,444
1773579264.3157277,22.1,28.8,0,-4096,136,484
1773579264.336128,22.1,28.8,0,-4096,136,484
1773579264.356861,22.1,28.8,0,-4176,104,376
1773579264.3777947,22.1,28.8,0,-4176,104,376
1773579264.3985572,22.1,28.8,0,-4176,104,376
1773579264.419809,22.1,28.8,0,-4216,-12,488
1773579264.4401536,22.1,28.8,0,-4216,-12,488
1773579264.4609356,22.1,28.8,0,-4172,168,400
1773579264.4827085,22.1,28.8,0,-4172,168,400
1773579264.5030951,22.1,28.8,0,-4172,168,400
1773579264.523942,22.1,28.8,0,-4136,116,440
1773579264.5448623,22.1,28.8,0,-4136,116,440
1773579264.566242,22.1,28.8,0,-4204,44,420
1773579264.5874326,22.1,28.8,0,-4204,44,420
1773579264.6091301,22.1,28.8,0,-4204,44,420
1773579264.629852,22.1,28.8,0,-4120,160,488
1773579264.650579,22.1,28.8,0,-4120,160,488
1773579264.6708906,22.1,28.8,0,-4068,164,488
1773579264.6915498,22.1,28.8,0,-4068,164,488
1773579264.7123864,22.1,28.8,0,-4068,164,488
1773579264.734196,22.1,28.8,0,-4192,96,360
1773579264.755437,22.1,28.8,0,-4192,96,360
1773579264.7762218,22.1,28.8,0,-4168,28,500
1773579264.7971754,22.1,28.8,0,-4168,28,500
1773579264.819373,22.1,28.8,0,-4168,28,500
1773579264.8401043,22.1,28.8,0,-4168,232,320
1773579264.860685,22.1,28.8,0,-4168,232,320
1773579264.8813326,22.1,28.8,0,-4132,84,444
1773579264.9025857,22.1,28.8,0,-4132,84,444
1773579264.9234276,22.1,28.8,0,-4132,84,444
1773579264.9441333,22.1,28.8,0,-4172,48,444
1773579264.9648013,22.1,28.8,0,-4172,48,444
1773579264.9857562,22.1,28.8,0,-4172,48,444
1773579265.0061076,22.1,28.8,0,-4160,132,444
1773579265.0267003,22.1,28.8,0,-4160,132,444
1773579265.048107,22.1,28.8,0,-4108,128,492
1773579265.068612,22.1,28.8,0,-4108,128,492
1773579265.0895925,22.1,28.8,0,-4108,128,492
1773579265.1103103,22.1,28.8,0,-4168,56,400
1773579265.130624,22.1,28.8,0,-4168,56,400
1773579265.1514442,22.1,28.8,0,-4128,8,484
1773579265.1722252,22.1,28.8,0,-4128,8,484
1773579265.193135,22.1,28.8,0,-4128,8,484
1773579265.2134924,22.1,28.8,0,-4184,240,356
1773579265.233761,22.1,28.8,0,-4184,240,356
1773579265.2542994,22.1,28.8,0,-4192,24,452
1773579265.2784805,22.1,28.8,0,-4192,24,452
1773579265.2989385,22.1,28.8,0,-4192,24,452
1773579265.3193095,22.1,28.8,0,-4152,84,432
1773579265.33989,22.1,28.8,0,-4152,84,432
1773579265.3604002,22.1,28.8,0,-4152,84,432
1773579265.3807669,22.1,28.8,0,-4152,84,432
1773579265.4043431,22.1,28.7,0,-4164,116,392
1773579265.4266472,22.1,28.7,0,-4164,116,392
1773579265.4473357,22.1,28.7,0,-4228,64,480
1773579265.4678578,22.1,28.7,0,-4228,64,480
1773579265.4884326,22.1,28.7,0,-4228,64,480
1773579265.5090685,22.1,28.7,0,-4140,120,364
1773579265.5296483,22.1,28.7,0,-4140,120,364
1773579265.550117,22.1,28.7,0,-4172,112,404
1773579265.570659,22.1,28.7,0,-4172,112,404
1773579265.5913892,22.1,28.7,0,-4172,112,404
1773579265.6122537,22.1,28.7,0,-4208,140,500
1773579265.6324396,22.1,28.7,0,-4208,140,500
1773579265.6525862,22.1,28.7,0,-4152,160,412
1773579265.673579,22.1,28.7,0,-4152,160,412
1773579265.6939096,22.1,28.7,0,-4152,160,412
1773579265.714728,22.1,28.7,0,-4068,56,504
1773579265.7369535,22.1,28.7,0,-4068,56,504
1773579265.758158,22.1,28.7,0,-4184,116,420
1773579265.778869,22.1,28.7,0,-4184,116,420
1773579265.8002124,22.1,28.7,0,-4184,116,420
1773579265.8212745,22.1,28.7,0,-4212,40,444
1773579265.8422587,22.1,28.7,0,-4212,40,444
1773579265.8635895,22.1,28.7,0,-4144,140,384
1773579265.8848038,22.1,28.7,0,-4144,140,384
1773579265.9055145,22.1,28.7,0,-4144,140,384
1773579265.926229,22.1,28.7,0,-4136,76,416
1773579265.9470932,22.1,28.7,0,-4136,76,416
1773579265.9695935,22.1,28.7,0,-4216,120,456
1773579265.9901261,22.1,28.7,0,-4216,120,456
1773579266.0111709,22.1,28.7,0,-4216,120,456
1773579266.0323482,22.1,28.7,0,-4148,112,420
1773579266.0527134,22.1,28.7,0,-4148,112,420
1773579266.0730875,22.1,28.7,0,-4084,64,484
1773579266.093769,22.1,28.7,0,-4084,64,484
1773579266.1147914,22.1,28.7,0,-4084,64,484
1773579266.1358979,22.1,28.7,0,-4196,152,412
1773579266.156761,22.1,28.7,0,-4196,152,412
1773579266.1775465,22.1,28.7,0,-4196,152,412
1773579266.1985843,22.1,28.7,0,-4192,-8,464
1773579266.2193353,22.1,28.7,0,-4192,-8,464
1773579266.2398345,22.1,28.7,0,-4144,136,380
1773579266.2600913,22.1,28.7,0,-4144,136,380
1773579266.2806795,22.1,28.7,0,-4144,136,380
1773579266.3016543,22.1,28.7,0,-4176,112,448
1773579266.3221405,22.1,28.7,0,-4176,112,448
1773579266.34273,22.1,28.7,0,-4188,104,428
1773579266.3631341,22.1,28.7,0,-4188,104,428
1773579266.3835194,22.1,28.7,0,-4188,104,428
1773579266.404196,22.1,28.7,0,-4112,120,464
1773579266.4244857,22.1,28.7,0,-4112,120,464
1773579266.4452045,22.1,28.7,0,-4076,88,492
1773579266.4658835,22.1,28.7,0,-4076,88,492
1773579266.4864728,22.1,28.7,0,-4076,88,492
1773579266.507017,22.1,28.7,0,-4180,152,388
1773579266.5276241,22.1,28.7,0,-4180,152,388
1773579266.5493462,22.1,28.7,0,-4180,152,388
1773579266.5728486,22.1,28.7,0,-4184,-8,492
1773579266.5932987,22.1,28.7,0,-4184,-8,492
1773579266.6146176,22.1,28.7,0,-4168,160,340
1773579266.636517,22.1,28.7,0,-4168,160,340
1773579266.6571317,22.1,28.7,0,-4184,124,456
1773579266.6782134,22.1,28.7,0,-4184,124,456
1773579266.6993477,22.1,28.7,0,-4184,124,456
1773579266.7199492,22.1,28.7,0,-4164,68,432
1773579266.7406373,22.1,28.7,0,-4164,68,432
1773579266.76125,22.1,28.7,0,-4164,68,432
1773579266.7820795,22.1,28.7,0,-4124,104,432
1773579266.80287,22.1,28.7,0,-4124,104,432
1773579266.8234172,22.1,28.7,0,-4116,116,484
1773579266.8455331,22.1,28.7,0,-4116,116,484
1773579266.8662503,22.1,28.7,0,-4116,116,484
1773579266.8868513,22.1,28.7,0,-4160,112,396
1773579266.9076416,22.1,28.7,0,-4160,112,396
1773579266.9286702,22.1,28.7,0,-4116,20,472
1773579266.9501774,22.1,28.7,0,-4116,20,472
1773579266.9705021,22.1,28.7,0,-4116,20,472
1773579266.9915776,22.1,28.7,0,-4176,200,344
1773579267.012426,22.1,28.7,0,-4176,200,344
1773579267.033881,22.1,28.7,0,-4212,100,480
1773579267.0548098,22.1,28.7,0,-4212,100,480
1773579267.0754712,22.1,28.7,0,-4212,100,480
1773579267.096676,22.1,28.7,0,-4168,44,432
1773579267.1181085,22.1,28.7,0,-4168,44,432
1773579267.1383896,22.1,28.7,0,-4164,152,408
1773579267.159182,22.1,28.7,0,-4164,152,408
1773579267.180168,22.1,28.7,0,-4164,152,408
1773579267.200808,22.1,28.7,0,-4152,100,472
1773579267.2221637,22.1,28.7,0,-4152,100,472
1773579267.243033,22.1,28.7,0,-4152,76,428
1773579267.2646806,22.1,28.7,0,-4152,76,428
1773579267.2870376,22.1,28.7,0,-4152,76,428
1773579267.3080823,22.1,28.7,0,-4120,36,480
1773579267.3293555,22.1,28.7,0,-4120,36,480
1773579267.3502533,22.1,28.7,0,-4184,160,360
1773579267.3710644,22.1,28.7,0,-4184,160,360
1773579267.3920493,22.1,28.7,0,-4184,160,360
1773579267.412943,22.1,28.7,0,-4184,160,360
1773579267.4341562,22.1,28.7,0,-4148,168,408
1773579267.4555945,22.1,28.7,0,-4148,168,408
1773579267.4761999,22.1,28.7,0,-4148,168,408
1773579267.4969018,22.1,28.7,0,-4096,52,528
1773579267.5176136,22.1,28.7,0,-4096,52,528
1773579267.5382051,22.1,28.7,0,-4164,120,400
1773579267.5586183,22.1,28.7,0,-4164,120,400
1773579267.5792644,22.1,28.7,0,-4164,120,400
1773579267.5999074,22.1,28.7,0,-4208,40,468
1773579267.6206465,22.1,28.7,0,-4208,40,468
1773579267.6410542,22.1,28.7,0,-4152,172,384
1773579267.6617155,22.1,28.7,0,-4152,172,384
1773579267.6822965,22.1,28.7,0,-4152,172,384
1773579267.7028413,22.1,28.7,0,-4164,68,460
1773579267.7237544,22.1,28.7,0,-4164,68,460
1773579267.7442687,22.1,28.7,0,-4164,68,460
1773579267.7650373,22.1,28.7,0,-4208,64,424
1773579267.7864053,22.1,28.7,0,-4208,64,424
1773579267.808765,22.1,28.7,0,-4160,164,420
1773579267.829949,22.1,28.7,0,-4160,164,420
1773579267.850583,22.1,28.7,0,-4052,84,516
1773579267.8713164,22.1,28.7,0,-4052,84,516
1773579267.8919585,22.1,28.7,0,-4052,84,516
1773579267.9129498,22.1,28.7,0,-4184,116,376
1773579267.9355767,22.1,28.7,0,-4184,116,376
1773579267.955898,22.1,28.7,0,-4184,116,376
1773579267.9771771,22.1,28.7,0,-4200,60,476
1773579267.998671,22.1,28.7,0,-4200,60,476
1773579268.0194612,22.1,28.7,0,-4132,156,372
1773579268.0403967,22.1,28.7,0,-4132,156,372
1773579268.0606947,22.1,28.7,0,-4132,156,372
1773579268.0821667,22.1,28.7,0,-4176,84,496
1773579268.1033988,22.1,28.7,0,-4176,84,496
1773579268.12447,22.1,28.7,0,-4208,112,428
1773579268.1455905,22.1,28.7,0,-4208,112,428
1773579268.1663587,22.1,28.7,0,-4208,112,428
1773579268.186788,22.1,28.7,0,-4120,152,436
1773579268.2072518,22.1,28.7,0,-4120,152,436
1773579268.228631,22.1,28.7,0,-4100,80,524
1773579268.2496057,22.1,28.7,0,-4100,80,524
1773579268.270229,22.1,28.7,0,-4100,80,524
1773579268.2910814,22.1,28.7,0,-4184,76,412
1773579268.311833,22.1,28.7,0,-4184,76,412
1773579268.332554,22.1,28.7,0,-4148,48,484
1773579268.3536725,22.1,28.7,0,-4148,48,484
1773579268.3739622,22.1,28.7,0,-4148,48,484
1773579268.39492,22.1,28.7,0,-4164,164,328
1773579268.415832,22.1,28.7,0,-4164,164,328
1773579268.4364183,22.1,28.7,0,-4172,40,480
1773579268.456885,22.1,28.7,0,-4172,40,480
1773579268.4775918,22.1,28.7,0,-4172,40,480
1773579268.4988027,22.1,28.7,0,-4168,112,416
1773579268.5195875,22.1,28.7,0,-4168,112,416
1773579268.5400276,22.1,28.7,0,-4168,112,416
1773579268.56071,22.1,28.7,0,-4160,108,412
1773579268.5819333,22.1,28.7,0,-4160,108,412
1773579268.6024883,22.1,28.7,0,-4112,84,500
1773579268.6233041,22.1,28.7,0,-4112,84,500
1773579268.6442058,22.1,28.7,0,-4112,84,500
1773579268.6645148,22.1,28.7,0,-4180,136,400
1773579268.6853075,22.1,28.7,0,-4180,136,400
1773579268.7060146,22.1,28.7,0,-4124,20,480
1773579268.726936,22.1,28.7,0,-4124,20,480
1773579268.7475078,22.1,28.7,0,-4124,20,480
1773579268.7681515,22.1,28.7,0,-4168,132,360
1773579268.7885277,22.1,28.7,0,-4168,132,360
1773579268.809223,22.1,28.7,0,-4200,100,456
1773579268.829582,22.1,28.7,0,-4200,100,456
1773579268.8504736,22.1,28.7,0,-4200,100,456
1773579268.8712173,22.1,28.7,0,-4140,76,404
1773579268.8916905,22.1,28.7,0,-4140,76,404
1773579268.9119244,22.1,28.7,0,-4140,76,404
1773579268.9326646,22.1,28.7,0,-4148,144,432
1773579268.953346,22.1,28.7,0,-4148,144,432
1773579268.9737465,22.1,28.7,0,-4144,140,508
1773579268.9942942,22.1,28.7,0,-4144,140,508
1773579269.0150871,22.1,28.7,0,-4144,140,508
1773579269.0363522,22.1,28.7,0,-4160,104,424
1773579269.0570736,22.1,28.7,0,-4160,104,424
1773579269.0778887,22.1,28.7,0,-4112,40,500
1773579269.0990882,22.1,28.7,0,-4112,40,500
1773579269.1195219,22.1,28.7,0,-4112,40,500
1773579269.1399527,22.1,28.7,0,-4188,212,376
1773579269.1604838,22.1,28.7,0,-4188,212,376
1773579269.1818178,22.1,28.7,0,-4196,44,460
1773579269.203341,22.1,28.7,0,-4196,44,460
1773579269.2252429,22.1,28.7,0,-4196,44,460
1773579269.2473283,22.1,28.7,0,-4152,88,408
1773579269.2690024,22.1,28.7,0,-4152,88,408
1773579269.2900188,22.1,28.7,0,-4160,140,440
1773579269.3102975,22.1,28.7,0,-4160,140,440
1773579269.3310292,22.1,28.7,0,-4160,140,440
1773579269.3516405,22.1,28.7,0,-4176,128,476
1773579269.372792,22.1,28.7,0,-4176,128,476
1773579269.3935864,22.1,28.7,0,-4152,52,408
1773579269.4139931,22.1,28.7,0,-4152,52,408
1773579269.435477,22.1,28.7,0,-4152,52,408
1773579269.4565914,22.1,28.7,0,-4152,52,408
1773579269.4779694,22.1,28.7,0,-4172,136,420
1773579269.498735,22.1,28.7,0,-4172,136,420
1773579269.5203366,22.1,28.7,0,-4172,136,420
1773579269.5410812,22.1,28.7,0,-4200,124,476
1773579269.5619347,22.1,28.7,0,-4200,124,476
1773579269.582883,22.1,28.7,0,-4132,92,432
1773579269.6032195,22.1,28.7,0,-4132,92,432
1773579269.6234593,22.1,28.7,0,-4132,92,432
1773579269.6443856,22.1,28.7,0,-4116,68,520
1773579269.6653087,22.1,28.7,0,-4116,68,520
1773579269.6858025,22.1,28.7,0,-4192,164,356
1773579269.7066405,22.1,28.7,0,-4192,164,356
1773579269.7278073,22.1,28.7,0,-4192,164,356
1773579269.7500668,22.1,28.7,0,-4212,0,448
1773579269.7707412,22.1,28.7,0,-4212,0,448
1773579269.7913313,22.1,28.7,0,-4144,148,420
1773579269.8119164,22.1,28.7,0,-4144,148,420
1773579269.832373,22.1,28.7,0,-4144,148,420
1773579269.8533056,22.1,28.7,0,-4136,132,428
1773579269.8735666,22.1,28.7,0,-4136,132,428
1773579269.8938875,22.1,28.7,0,-4216,124,408
1773579269.9145756,22.1,28.7,0,-4216,124,408
1773579269.935202,22.1,28.7,0,-4216,124,408
1773579269.9556997,22.1,28.7,0,-4152,104,452
1773579269.9760182,22.1,28.7,0,-4152,104,452
1773579269.9962673,22.1,28.7,0,-4152,104,452
1773579270.0168478,22.1,28.7,0,-4044,88,500
1773579270.0371037,22.1,28.7,0,-4044,88,500
1773579270.0575244,22.1,28.7,0,-4200,176,340
1773579270.0779903,22.1,28.7,0,-4200,176,340
1773579270.0986843,22.1,28.7,0,-4200,176,340
1773579270.119093,22.1,28.7,0,-4176,52,484
1773579270.139796,22.1,28.7,0,-4176,52,484
1773579270.1606684,22.1,28.7,0,-4128,136,392
1773579270.1818943,22.1,28.7,0,-4128,136,392
1773579270.2023158,22.1,28.7,0,-4128,136,392
1773579270.2231708,22.1,28.7,0,-4156,72,468
1773579270.2451246,22.1,28.7,0,-4156,72,468
1773579270.2656593,22.1,28.7,0,-4188,116,404
1773579270.286273,22.1,28.7,0,-4188,116,404
1773579270.3065326,22.1,28.7,0,-4188,116,404
1773579270.327738,22.1,28.7,0,-4132,156,464
1773579270.348579,22.1,28.7,0,-4132,156,464
1773579270.369468,22.1,28.7,0,-4132,156,464
1773579270.3901324,22.1,28.7,0,-4084,68,504
1773579270.410565,22.1,28.7,0,-4084,68,504
1773579270.4316356,22.1,28.7,0,-4184,124,392
1773579270.4525752,22.1,28.7,0,-4184,124,392
1773579270.4729908,22.1,28.7,0,-4184,124,392
1773579270.493431,22.1,28.7,0,-4128,52,516
1773579270.5138955,22.1,28.7,0,-4128,52,516
1773579270.5365806,22.1,28.7,0,-4156,180,360
1773579270.5574641,22.1,28.7,0,-4156,180,360
1773579270.5825584,22.1,28.7,0,-4156,180,360
1773579270.6043737,22.1,28.7,0,-4200,36,464
1773579270.6250677,22.1,28.7,0,-4200,36,464
1773579270.6459296,22.1,28.7,0,-4164,100,420
1773579270.6670556,22.1,28.7,0,-4164,100,420
1773579270.6879268,22.1,28.7,0,-4164,100,420
1773579270.7090762,22.1,28.7,0,-4148,180,448
1773579270.7295725,22.1,28.7,0,-4148,180,448
1773579270.7510848,22.1,28.7,0,-4120,64,464
1773579270.7725222,22.1,28.7,0,-4120,64,464
1773579270.7932389,22.1,28.7,0,-4120,64,464
1773579270.8155944,22.1,28.7,0,-4144,68,400
1773579270.8359573,22.1,28.7,0,-4144,68,400
1773579270.8563108,22.1,28.7,0,-4172,140,540
1773579270.8767717,22.1,28.7,0,-4172,140,540
1773579270.897362,22.1,28.7,0,-4172,140,540
1773579270.9179769,22.1,28.7,0,-4192,196,392
1773579270.9396603,22.1,28.7,0,-4192,196,392
1773579270.9602015,22.1,28.7,0,-4204,-12,440
1773579270.981083,22.1,28.7,0,-4204,-12,440
1773579271.0024178,22.1,28.7,0,-4204,-12,440
1773579271.022848,22.1,28.7,0,-4160,136,404
1773579271.0435605,22.1,28.7,0,-4160,136,404
1773579271.0642886,22.1,28.7,0,-4180,188,416
1773579271.0853817,22.1,28.7,0,-4180,188,416
1773579271.1074464,22.1,28.7,0,-4180,188,416
1773579271.127897,22.1,28.7,0,-4204,124,420
1773579271.148297,22.1,28.7,0,-4204,124,420
1773579271.168688,22.1,28.7,0,-4152,52,436
1773579271.189004,22.1,28.7,0,-4152,52,436
1773579271.2094147,22.1,28.7,0,-4152,52,436
1773579271.2296515,22.1,28.7,0,-4112,140,532
1773579271.250321,22.1,28.7,0,-4112,140,532
1773579271.2711625,22.1,28.7,0,-4112,140,532
1773579271.2917004,22.1,28.7,0,-4208,188,368
1773579271.3123446,22.1,28.7,0,-4208,188,368
1773579271.332953,22.1,28.7,0,-4188,-16,480
1773579271.353898,22.1,28.7,0,-4188,-16,480
1773579271.3745682,22.1,28.7,0,-4188,-16,480
1773579271.3950942,22.1,28.7,0,-4164,144,392
1773579271.4158993,22.1,28.7,0,-4164,144,392
1773579271.4364805,22.1,28.7,0,-4160,160,476
1773579271.4575214,22.1,28.7,0,-4160,160,476
1773579271.4780056,22.1,28.7,0,-4160,160,476
1773579271.4987745,22.1,28.7,0,-4160,160,476
1773579271.5200858,22.1,28.7,0,-4156,64,524
1773579271.5416718,22.1,28.7,0,-4156,64,524
1773579271.5620677,22.1,28.7,0,-4156,64,524
1773579271.5831418,22.1,28.7,0,-4148,176,332
1773579271.6034486,22.1,28.7,0,-4148,176,332
1773579271.62399,22.1,28.7,1,-4192,72,440
1773579271.6445827,22.1,28.7,1,-4192,72,440
1773579271.6652467,22.1,28.7,1,-4192,72,440
1773579271.68649,22.1,28.7,1,-4188,108,436
1773579271.707128,22.1,28.7,1,-4188,108,436
1773579271.7279515,22.1,28.7,1,-4144,192,464
1773579271.748997,22.1,28.7,1,-4144,192,464
1773579271.7710998,22.1,28.7,1,-4144,192,464
1773579271.792112,22.1,28.7,1,-4128,64,484
1773579271.8128705,22.1,28.7,1,-4128,64,484
1773579271.8339434,22.1,28.7,1,-4156,76,412
1773579271.8555653,22.1,28.7,1,-4156,76,412
1773579271.8761404,22.1,28.7,1,-4156,76,412
1773579271.8969755,22.1,28.7,1,-4112,116,500
1773579271.9189324,22.1,28.7,1,-4112,116,500
1773579271.9396646,22.1,28.7,1,-4180,148,348
1773579271.9601955,22.1,28.7,1,-4180,148,348
1773579271.9814932,22.1,28.7,1,-4180,148,348
1773579272.002208,22.1,28.7,0,-4220,60,464
1773579272.0231986,22.1,28.7,0,-4220,60,464
1773579272.0442698,22.1,28.7,0,-4164,124,388
1773579272.0655413,22.1,28.7,0,-4164,124,388
1773579272.0860054,22.1,28.7,0,-4164,124,388
1773579272.106642,22.1,28.7,1,-4144,152,432
1773579272.1273422,22.1,28.7,1,-4144,152,432
1773579272.1479678,22.1,28.7,1,-4164,112,452
1773579272.1684778,22.1,28.7,1,-4164,112,452
1773579272.1892817,22.1,28.7,1,-4164,112,452
1773579272.2103622,22.1,28.7,0,-4172,100,400
1773579272.2312138,22.1,28.7,0,-4172,100,400
1773579272.2516868,22.1,28.7,0,-4172,100,400
1773579272.2722628,22.1,28.7,0,-4116,104,548
1773579272.2926862,22.1,28.7,0,-4116,104,548
1773579272.313359,22.1,28.7,0,-4184,180,356
1773579272.333931,22.1,28.7,0,-4184,180,356
1773579272.3547618,22.1,28.7,0,-4184,180,356
1773579272.3752997,22.1,28.7,1,-4200,16,440
1773579272.3958812,22.1,28.7,1,-4200,16,440
1773579272.4163668,22.1,28.7,1,-4132,140,388
1773579272.436849,22.1,28.7,1,-4132,140,388
1773579272.457521,22.1,28.7,1,-4132,140,388
1773579272.4779165,22.1,28.7,1,-4168,128,424
1773579272.4987414,22.1,28.7,1,-4168,128,424
1773579272.5192268,22.1,28.7,1,-4180,108,456
1773579272.5394044,22.1,28.7,1,-4180,108,456
1773579272.5600188,22.1,28.7,1,-4180,108,456
1773579272.5803347,22.1,28.7,1,-4172,60,436
1773579272.601835,22.1,28.7,1,-4172,60,436
1773579272.6223094,22.1,28.7,1,-4172,60,436
1773579272.643042,22.1,28.7,1,-4088,92,532
1773579272.663627,22.1,28.7,1,-4088,92,532
1773579272.6844068,22.1,28.7,0,-4176,180,372
1773579272.7060688,22.1,28.7,0,-4176,180,372
1773579272.7264547,22.1,28.7,0,-4176,180,372
1773579272.7468033,22.1,28.7,0,-4196,-8,480
1773579272.7686923,22.1,28.7,0,-4196,-8,480
1773579272.7895248,22.1,28.7,0,-4136,184,416
1773579272.8098805,22.1,28.7,0,-4136,184,416
1773579272.8311763,22.1,28.7,0,-4136,184,416
1773579272.8531494,22.1,28.7,1,-4180,176,404
1773579272.8739083,22.1,28.7,1,-4180,176,404
1773579272.8945305,22.1,28.7,1,-4196,40,464
1773579272.9151576,22.1,28.7,1,-4196,40,464
1773579272.9370382,22.1,28.7,1,-4196,40,464
1773579272.957995,22.1,28.7,1,-4144,80,436
1773579272.9787793,22.1,28.7,1,-4144,80,436
1773579272.999566,22.1,28.7,1,-4112,148,500
1773579273.02052,22.1,28.7,1,-4112,148,500
1773579273.0410497,22.1,28.7,1,-4112,148,500
1773579273.0618722,22.1,28.7,1,-4172,120,364
1773579273.0830247,22.1,28.7,1,-4172,120,364
1773579273.103786,22.1,28.7,1,-4204,-72,484
1773579273.1248908,22.1,28.7,1,-4204,-72,484
1773579273.1456366,22.1,28.7,1,-4204,-72,484
1773579273.1668642,22.1,28.7,1,-4160,232,412
1773579273.187835,22.1,28.7,1,-4160,232,412
1773579273.2088523,22.1,28.7,1,-4160,232,412
1773579273.22967,22.1,28.7,0,-4132,100,404
1773579273.2528713,22.1,28.7,0,-4132,100,404
1773579273.2734683,22.1,28.7,0,-4192,20,448
1773579273.2942371,22.1,28.7,0,-4192,20,448
1773579273.314742,22.1,28.7,0,-4192,20,448
1773579273.3369424,22.1,28.7,0,-4148,160,488
1773579273.3577385,22.1,28.7,0,-4148,160,488
1773579273.3786323,22.1,28.7,1,-4092,144,480
1773579273.3993065,22.1,28.7,1,-4092,144,480
1773579273.420442,22.1,28.7,1,-4092,144,480
1773579273.4411373,22.1,28.7,1,-4172,96,368
1773579273.461717,22.1,28.7,1,-4172,96,368
1773579273.482053,22.1,28.7,1,-4180,-28,492
1773579273.5023146,22.1,28.7,1,-4180,-28,492
1773579273.522833,22.1,28.7,1,-4180,-28,492
1773579273.5435488,22.1,28.7,1,-4180,-28,492
1773579273.5647833,22.1,28.6,1,-4116,140,480
1773579273.585709,22.1,28.6,1,-4116,140,480
1773579273.606603,22.1,28.6,1,-4176,128,408
1773579273.6274126,22.1,28.6,1,-4176,128,408
1773579273.6483095,22.1,28.6,1,-4176,128,408
1773579273.671105,22.1,28.6,1,-4164,-4,504
1773579273.6916869,22.1,28.6,1,-4164,-4,504
1773579273.712252,22.1,28.6,0,-4172,236,332
1773579273.7328591,22.1,28.6,0,-4172,236,332
1773579273.7533824,22.1,28.6,0,-4172,236,332
1773579273.773821,22.1,28.6,0,-4184,88,436
1773579273.7947059,22.1,28.6,0,-4184,88,436
1773579273.8155603,22.1,28.6,0,-4184,88,436
1773579273.83627,22.1,28.6,0,-4156,20,416
1773579273.8573325,22.1,28.6,0,-4156,20,416
1773579273.8783553,22.1,28.6,0,-4140,140,420
1773579273.8996153,22.1,28.6,0,-4140,140,420
1773579273.921661,22.1,28.6,0,-4140,140,420
1773579273.9420192,22.1,28.6,0,-4096,112,476
1773579273.9627006,22.1,28.6,0,-4096,112,476
1773579273.983141,22.1,28.6,0,-4152,80,416
1773579274.003712,22.1,28.6,0,-4152,80,416
1773579274.0243526,22.1,28.6,0,-4152,80,416
1773579274.0448735,22.1,28.6,1,-4124,28,496
1773579274.0658464,22.1,28.6,1,-4124,28,496
1773579274.086406,22.1,28.6,1,-4172,212,372
1773579274.1067276,22.1,28.6,1,-4172,212,372
1773579274.12742,22.1,28.6,1,-4172,212,372
1773579274.1482787,22.1,28.6,1,-4244,96,464
1773579274.168627,22.1,28.6,1,-4244,96,464
1773579274.1893764,22.1,28.6,1,-4244,96,464
1773579274.2101643,22.1,28.6,1,-4172,128,392
1773579274.2322314,22.1,28.6,1,-4172,128,392
1773579274.2541895,22.1,28.6,1,-4164,148,436
1773579274.275229,22.1,28.6,1,-4164,148,436
1773579274.29597,22.1,28.6,1,-4164,148,436
1773579274.3169684,22.1,28.6,1,-4184,128,460
1773579274.3374817,22.1,28.6,1,-4184,128,460
1773579274.35826,22.1,28.6,1,-4172,88,432
1773579274.3786206,22.1,28.6,1,-4172,88,432
1773579274.3994799,22.1,28.6,1,-4172,88,432
1773579274.4199867,22.1,28.6,0,-4112,52,528
1773579274.4408703,22.1,28.6,0,-4112,52,528
1773579274.461135,22.1,28.6,0,-4188,132,384
1773579274.48195,22.1,28.6,0,-4188,132,384
1773579274.502582,22.1,28.6,0,-4188,132,384
1773579274.5234427,22.1,28.6,0,-4224,116,448
1773579274.5448916,22.1,28.6,0,-4224,116,448
1773579274.5659363,22.1,28.6,0,-4160,220,380
1773579274.5873828,22.1,28.6,0,-4160,220,380
1773579274.6082382,22.1,28.6,0,-4160,220,380
1773579274.6287243,22.1,28.6,0,-4128,68,400
1773579274.6494436,22.1,28.6,0,-4128,68,400
1773579274.6700366,22.1,28.6,1,-4228,104,500
1773579274.690883,22.1,28.6,1,-4228,104,500
1773579274.7117367,22.1,28.6,1,-4228,104,500
1773579274.732289,22.1,28.6,1,-4168,208,444
1773579274.752752,22.1,28.6,1,-4168,208,444
1773579274.7734282,22.1,28.6,1,-4168,208,444
1773579274.7941704,22.1,28.6,1,-4048,144,472
1773579274.814707,22.1,28.6,1,-4048,144,472
1773579274.8351586,22.1,28.6,1,-4164,64,376
1773579274.855483,22.1,28.6,1,-4164,64,376
1773579274.8761485,22.1,28.6,1,-4164,64,376
1773579274.8969615,22.1,28.6,1,-4196,40,516
1773579274.9178,22.1,28.6,1,-4196,40,516
1773579274.9385183,22.1,28.6,0,-4180,228,328
1773579274.9590366,22.1,28.6,0,-4180,228,328
1773579274.9795172,22.1,28.6,0,-4180,228,328
1773579275.0005186,22.1,28.6,0,-4124,52,452
1773579275.0211885,22.1,28.6,0,-4124,52,452
1773579275.0416493,22.1,28.6,0,-4184,76,444
1773579275.0622232,22.1,28.6,0,-4184,76,444
1773579275.0833921,22.1,28.6,0,-4184,76,444
1773579275.1039245,22.1,28.6,0,-4168,164,444
1773579275.1244528,22.1,28.6,0,-4168,164,444
1773579275.145358,22.1,28.6,0,-4168,164,444
1773579275.1671882,22.1,28.6,0,-4068,152,480
1773579275.1879468,22.1,28.6,0,-4068,152,480
1773579275.208874,22.1,28.6,1,-4144,44,404
1773579275.2298071,22.1,28.6,1,-4144,44,404
1773579275.2523243,22.1,28.6,1,-4144,44,404
1773579275.2727807,22.1,28.6,1,-4132,8,508
1773579275.2935064,22.1,28.6,1,-4132,8,508
1773579275.3141544,22.1,28.6,1,-4188,272,372
1773579275.335773,22.1,28.6,1,-4188,272,372
1773579275.3564305,22.1,28.6,1,-4188,272,372
1773579275.3768644,22.1,28.6,1,-4200,60,436
1773579275.397925,22.1,28.6,1,-4200,60,436
1773579275.4186752,22.1,28.6,1,-4176,68,428
1773579275.439316,22.1,28.6,1,-4176,68,428
1773579275.4600291,22.1,28.6,1,-4176,68,428
1773579275.4807138,22.1,28.6,1,-4132,128,460
1773579275.5016408,22.1,28.6,1,-4132,128,460
1773579275.522215,22.1,28.6,0,-4168,132,444
1773579275.543236,22.1,28.6,0,-4168,132,444
1773579275.564184,22.1,28.6,0,-4168,132,444
1773579275.5860813,22.1,28.6,0,-4168,132,444
1773579275.606941,22.1,28.5,0,-4184,252,388
1773579275.627773,22.1,28.5,0,-4184,252,388
1773579275.6488483,22.1,28.5,0,-4184,252,388
1773579275.6696115,22.1,28.5,0,-4124,96,388
1773579275.6899242,22.1,28.5,0,-4124,96,388
1773579275.7105994,22.1,28.5,0,-4216,44,456
1773579275.7315276,22.1,28.5,0,-4216,44,456
1773579275.7525296,22.1,28.5,0,-4216,44,456
1773579275.7730021,22.1,28.5,0,-4188,164,464
1773579275.7937026,22.1,28.5,0,-4188,164,464
1773579275.814325,22.1,28.5,1,-4084,184,464
1773579275.8362641,22.1,28.5,1,-4084,184,464
1773579275.8569171,22.1,28.5,1,-4084,184,464
1773579275.8780582,22.1,28.5,1,-4176,84,344
1773579275.8989158,22.1,28.5,1,-4176,84,344
1773579275.919652,22.1,28.5,1,-4196,8,500
1773579275.9403534,22.1,28.5,1,-4196,8,500
1773579275.9609683,22.1,28.5,1,-4196,8,500
1773579275.9815567,22.1,28.5,1,-4188,200,364
1773579276.0022147,22.1,28.5,1,-4188,200,364
1773579276.0226839,22.1,28.5,1,-4156,100,456
1773579276.0430336,22.1,28.5,1,-4156,100,456
1773579276.063203,22.1,28.5,1,-4156,100,456
1773579276.0835414,22.1,28.5,0,-4180,56,428
1773579276.1041932,22.1,28.5,0,-4180,56,428
1773579276.1245213,22.1,28.5,0,-4180,56,428
1773579276.144789,22.1,28.5,0,-4164,200,460
1773579276.165484,22.1,28.5,0,-4164,200,460
1773579276.1866293,22.1,28.5,0,-4076,140,476
1773579276.2070038,22.1,28.5,0,-4076,140,476
1773579276.2277284,22.1,28.5,0,-4076,140,476
1773579276.2485015,22.1,28.5,0,-4148,92,408
1773579276.269869,22.1,28.5,0,-4148,92,408
1773579276.2902894,22.1,28.5,0,-4124,0,496
1773579276.3109312,22.1,28.5,0,-4124,0,496
1773579276.3312082,22.1,28.5,0,-4124,0,496
1773579276.35204,22.1,28.5,0,-4184,216,352
1773579276.3723094,22.1,28.5,0,-4184,216,352
1773579276.3929536,22.1,28.5,0,-4188,76,444
1773579276.4134383,22.1,28.5,0,-4188,76,444
1773579276.4349992,22.1,28.5,0,-4188,76,444
1773579276.4576843,22.1,28.5,0,-4160,88,396
1773579276.4790525,22.1,28.5,0,-4160,88,396
1773579276.4998128,22.1,28.5,0,-4172,148,460
1773579276.5216591,22.1,28.5,0,-4172,148,460
1773579276.542227,22.1,28.5,0,-4172,148,460
1773579276.56298,22.1,28.5,0,-4152,108,432
1773579276.5837262,22.1,28.5,0,-4152,108,432
1773579276.605111,22.1,28.5,0,-4140,64,452
1773579276.6255472,22.1,28.5,0,-4140,64,452
1773579276.6463385,22.1,28.5,0,-4140,64,452
1773579276.6673532,22.1,28.5,0,-4120,68,524
1773579276.6886287,22.1,28.5,0,-4120,68,524
1773579276.7091415,22.1,28.5,0,-4120,68,524
1773579276.7295122,22.1,28.5,0,-4180,168,344
1773579276.75018,22.1,28.5,0,-4180,168,344
1773579276.7707677,22.1,28.5,1,-4212,0,464
1773579276.791324,22.1,28.5,1,-4212,0,464
1773579276.8120434,22.1,28.5,1,-4212,0,464
1773579276.8326802,22.1,28.5,1,-4124,100,392
1773579276.8530228,22.1,28.5,1,-4124,100,392
1773579276.8735862,22.1,28.5,1,-4136,172,420
1773579276.8943355,22.1,28.5,1,-4136,172,420
1773579276.9149096,22.1,28.5,1,-4136,172,420
1773579276.935933,22.1,28.5,1,-4192,108,476
1773579276.9565437,22.1,28.5,1,-4192,108,476
1773579276.977077,22.1,28.5,1,-4176,116,460
1773579276.9973938,22.1,28.5,1,-4176,116,460
1773579277.0179408,22.1,28.5,1,-4176,116,460
1773579277.0382264,22.1,28.5,1,-4120,108,504
1773579277.0590317,22.1,28.5,1,-4120,108,504
1773579277.0797079,22.1,28.5,1,-4120,108,504
1773579277.1004913,22.1,28.5,0,-4196,148,384
1773579277.120959,22.1,28.5,0,-4196,148,384
1773579277.1417577,22.1,28.5,0,-4200,-12,472
1773579277.162064,22.1,28.5,0,-4200,-12,472
1773579277.1826558,22.1,28.5,0,-4200,-12,472
1773579277.2031395,22.1,28.5,0,-4184,188,380
1773579277.223542,22.1,28.5,0,-4184,188,380
1773579277.2441368,22.1,28.5,0,-4220,128,404
1773579277.2648225,22.1,28.5,0,-4220,128,404
1773579277.2852373,22.1,28.5,0,-4220,128,404
1773579277.3059921,22.1,28.5,0,-4160,96,476
1773579277.3267038,22.1,28.5,0,-4160,96,476
1773579277.3470182,22.1,28.5,0,-4160,96,476
1773579277.367519,22.1,28.5,0,-4116,172,460
1773579277.3877444,22.1,28.5,0,-4116,172,460
1773579277.4084988,22.1,28.5,0,-4144,148,488
1773579277.429195,22.1,28.5,0,-4144,148,488
1773579277.4499345,22.1,28.5,0,-4144,148,488
1773579277.4703689,22.1,28.5,0,-4180,68,372
1773579277.4909866,22.1,28.5,0,-4180,68,372
1773579277.511756,22.1,28.5,0,-4200,8,492
1773579277.5320055,22.1,28.5,0,-4200,8,492
1773579277.5524764,22.1,28.5,0,-4200,8,492
1773579277.573006,22.1,28.5,0,-4164,212,420
1773579277.5935807,22.1,28.5,0,-4164,212,420
1773579277.6141634,22.1,28.5,0,-4164,212,420
1773579277.6352434,22.1,28.5,0,-4164,212,420
1773579277.6558106,22.1,28.5,0,-4172,160,396
1773579277.6763275,22.1,28.5,0,-4172,160,396
1773579277.6969402,22.1,28.5,0,-4176,28,476
1773579277.7176394,22.1,28.5,0,-4176,28,476
1773579277.737925,22.1,28.5,0,-4176,28,476
1773579277.7586613,22.1,28.5,0,-4176,180,364
1773579277.779027,22.1,28.5,0,-4176,180,364
1773579277.7994,22.1,28.5,0,-4152,100,480
1773579277.819718,22.1,28.5,0,-4152,100,480
1773579277.8404603,22.1,28.5,0,-4152,100,480
1773579277.8609178,22.1,28.5,0,-4176,56,440
1773579277.8814318,22.1,28.5,0,-4176,56,440
1773579277.9020386,22.1,28.5,0,-4176,56,440
1773579277.922708,22.1,28.5,0,-4136,172,432
1773579277.9431195,22.1,28.5,0,-4136,172,432
1773579277.9636736,22.1,28.5,0,-4120,108,504
1773579277.9845037,22.1,28.5,0,-4120,108,504
1773579278.0050793,22.1,28.5,0,-4120,108,504
1773579278.0255766,22.1,28.5,0,-4152,92,408
1773579278.045913,22.1,28.5,0,-4152,92,408
1773579278.0662737,22.1,28.5,0,-4152,24,500
1773579278.086624,22.1,28.5,0,-4152,24,500
1773579278.1070888,22.1,28.5,0,-4152,24,500
1773579278.1273763,22.1,28.5,0,-4188,204,340
1773579278.1476834,22.1,28.5,0,-4188,204,340
1773579278.1681764,22.1,28.5,0,-4188,204,340
1773579278.18884,22.1,28.5,0,-4208,92,448
1773579278.209215,22.1,28.5,0,-4208,92,448
1773579278.2297428,22.1,28.5,0,-4176,44,420
1773579278.2503066,22.1,28.5,0,-4176,44,420
1773579278.270486,22.1,28.5,0,-4176,44,420
1773579278.2907777,22.1,28.5,0,-4164,156,412
1773579278.3114688,22.1,28.5,0,-4164,156,412
1773579278.3318048,22.1,28.5,0,-4152,116,488
1773579278.3522809,22.1,28.5,0,-4152,116,488
1773579278.3730261,22.1,28.5,0,-4152,116,488
1773579278.393568,22.1,28.5,0,-4168,56,408
1773579278.413974,22.1,28.5,0,-4168,56,408
1773579278.4344118,22.1,28.5,0,-4124,56,484
1773579278.455103,22.1,28.5,0,-4124,56,484
1773579278.4755998,22.1,28.5,0,-4124,56,484
1773579278.4961972,22.1,28.5,0,-4172,196,384
1773579278.516533,22.1,28.5,0,-4172,196,384
1773579278.5367756,22.1,28.5,0,-4172,196,384
1773579278.557211,22.1,28.5,0,-4192,32,464
1773579278.5776446,22.1,28.5,0,-4192,32,464
1773579278.5982308,22.1,28.5,0,-4168,84,376
1773579278.618777,22.1,28.5,0,-4168,84,376
1773579278.6393409,22.1,28.5,0,-4168,84,376
1773579278.6600103,22.1,28.5,0,-4160,160,400
1773579278.6806564,22.1,28.5,0,-4160,160,400
1773579278.701006,22.1,28.5,0,-4176,144,484
1773579278.7217522,22.1,28.5,0,-4176,144,484
1773579278.7425578,22.1,28.5,0,-4176,144,484
1773579278.763226,22.1,28.5,0,-4172,60,436
1773579278.783792,22.1,28.5,0,-4172,60,436
1773579278.804273,22.1,28.5,0,-4172,60,436
1773579278.825017,22.1,28.5,0,-4120,52,516
1773579278.8455508,22.1,28.5,0,-4120,52,516
1773579278.8658957,22.1,28.5,0,-4200,180,392
1773579278.8863406,22.1,28.5,0,-4200,180,392
1773579278.9070437,22.1,28.5,0,-4200,180,392
1773579278.9278393,22.1,28.5,0,-4224,36,456
1773579278.9486244,22.1,28.5,0,-4224,36,456
1773579278.9692492,22.1,28.5,0,-4136,128,392
1773579278.9899821,22.1,28.5,0,-4136,128,392
1773579279.0103912,22.1,28.5,0,-4136,128,392
1773579279.0308528,22.1,28.5,0,-4128,88,396
1773579279.0512657,22.1,28.5,0,-4128,88,396
1773579279.0716395,22.1,28.5,0,-4208,160,464
1773579279.091813,22.1,28.5,0,-4208,160,464
1773579279.112302,22.1,28.5,0,-4208,160,464
1773579279.1330874,22.1,28.5,0,-4136,104,444
1773579279.1534598,22.1,28.5,0,-4136,104,444
1773579279.1740274,22.1,28.5,0,-4136,104,444
1773579279.194495,22.1,28.5,0,-4052,64,464
1773579279.2148175,22.1,28.5,0,-4052,64,464
1773579279.2354224,22.1,28.5,0,-4216,156,372
1773579279.2556531,22.1,28.5,0,-4216,156,372
1773579279.2760744,22.1,28.5,0,-4216,156,372
1773579279.29678,22.1,28.5,0,-4196,20,496
1773579279.317462,22.1,28.5,0,-4196,20,496
1773579279.3377943,22.1,28.5,0,-4120,172,400
1773579279.358721,22.1,28.5,0,-4120,172,400
1773579279.3790429,22.1,28.5,0,-4120,172,400
1773579279.39925,22.1,28.5,0,-4128,52,452
1773579279.4196951,22.1,28.5,0,-4128,52,452
1773579279.4401133,22.1,28.5,0,-4128,52,452
1773579279.4605033,22.1,28.5,0,-4216,156,436
1773579279.4810462,22.1,28.5,0,-4216,156,436
1773579279.5016873,22.1,28.5,0,-4136,192,432
1773579279.5222309,22.1,28.5,0,-4136,192,432
1773579279.5431337,22.1,28.5,0,-4136,192,432
1773579279.5638494,22.1,28.5,0,-4048,52,488
1773579279.5846326,22.1,28.5,0,-4048,52,488
1773579279.60531,22.1,28.5,0,-4176,116,424
1773579279.6259224,22.1,28.5,0,-4176,116,424
1773579279.6463625,22.1,28.5,0,-4176,116,424
1773579279.6667528,22.1,28.5,0,-4176,116,424
1773579279.6876245,22.1,28.5,0,-4160,200,412
1773579279.7080362,22.1,28.5,0,-4160,200,412
1773579279.728506,22.1,28.5,0,-4160,200,412
1773579279.7491155,22.1,28.5,0,-4152,132,496
1773579279.7693846,22.1,28.5,0,-4152,132,496
1773579279.7898126,22.1,28.5,0,-4160,68,400
1773579279.8102562,22.1,28.5,0,-4160,68,400
1773579279.8305862,22.1,28.5,0,-4160,68,400
1773579279.852627,22.1,28.5,0,-4128,92,516
1773579279.8733954,22.1,28.5,0,-4128,92,516
1773579279.8940477,22.1,28.5,0,-4184,188,420
1773579279.9146235,22.1,28.5,0,-4184,188,420
1773579279.9350078,22.1,28.5,0,-4184,188,420
1773579279.9558072,22.1,28.5,0,-4196,-24,472
1773579279.977021,22.1,28.5,0,-4196,-24,472
1773579279.9978108,22.1,28.5,0,-4196,-24,472
1773579280.0192413,22.1,28.5,0,-4180,124,356
1773579280.039645,22.1,28.5,0,-4180,124,356
1773579280.0604806,22.1,28.5,0,-4136,180,432
1773579280.081925,22.1,28.5,0,-4136,180,432
1773579280.103475,22.1,28.5,0,-4136,180,432
1773579280.1240392,22.1,28.5,0,-4192,108,504
1773579280.1443195,22.1,28.5,0,-4192,108,504
1773579280.1651528,22.1,28.5,0,-4168,116,416
1773579280.187669,22.1,28.5,0,-4168,116,416
1773579280.2086272,22.1,28.5,0,-4168,116,416
1773579280.2289848,22.1,28.5,0,-4092,80,528
1773579280.2498868,22.1,28.5,0,-4092,80,528
1773579280.2705472,22.1,28.5,0,-4184,176,432
1773579280.2911468,22.1,28.5,0,-4184,176,432
1773579280.311908,22.1,28.5,0,-4184,176,432
1773579280.3335066,22.1,28.5,0,-4216,-12,448
1773579280.3539243,22.1,28.5,0,-4216,-12,448
1773579280.3746471,22.1,28.5,0,-4128,224,376
1773579280.3957524,22.1,28.5,0,-4128,224,376
1773579280.418918,22.1,28.5,0,-4128,224,376
1773579280.4392855,22.1,28.5,0,-4172,116,404
1773579280.4599872,22.1,28.5,0,-4172,116,404
1773579280.4811177,22.1,28.5,0,-4204,56,480
1773579280.5029325,22.1,28.5,0,-4204,56,480
1773579280.524365,22.1,28.5,0,-4204,56,480
1773579280.5451672,22.1,28.5,0,-4152,144,448
1773579280.5662904,22.1,28.5,0,-4152,144,448
1773579280.586928,22.1,28.5,0,-4100,88,488
1773579280.6072857,22.1,28.5,0,-4100,88,488
1773579280.6277375,22.1,28.5,0,-4100,88,488
1773579280.6480908,22.1,28.5,0,-4180,124,404
1773579280.668794,22.1,28.5,0,-4180,124,404
1773579280.6890604,22.1,28.5,0,-4208,0,480
1773579280.709822,22.1,28.5,0,-4208,0,480
1773579280.7306218,22.1,28.5,0,-4208,0,480
1773579280.7515025,22.1,28.5,0,-4140,180,392
1773579280.7720895,22.1,28.5,0,-4140,180,392
1773579280.7924058,22.1,28.5,0,-4140,180,392
1773579280.813132,22.1,28.5,0,-4144,104,472
1773579280.8353996,22.1,28.5,0,-4144,104,472
1773579280.8558173,22.1,28.5,0,-4196,80,440
1773579280.8761654,22.1,28.5,0,-4196,80,440
1773579280.8968015,22.1,28.5,0,-4196,80,440
1773579280.9200385,22.1,28.5,0,-4136,176,432
1773579280.9407866,22.1,28.5,0,-4136,176,432
1773579280.9616919,22.1,28.5,0,-4052,96,484
1773579280.9825974,22.1,28.5,0,-4052,96,484
1773579281.00319,22.1,28.5,0,-4052,96,484
1773579281.0243137,22.1,28.5,0,-4180,120,388
1773579281.044896,22.1,28.5,0,-4180,120,388
1773579281.065561,22.1,28.5,0,-4200,64,504
1773579281.0869205,22.1,28.5,0,-4200,64,504
1773579281.1071873,22.1,28.5,0,-4200,64,504
1773579281.127909,22.1,28.5,0,-4148,212,384
1773579281.1481712,22.1,28.5,0,-4148,212,384
1773579281.1686168,22.1,28.5,0,-4164,44,480
1773579281.189019,22.1,28.5,0,-4164,44,480
1773579281.20953,22.1,28.5,0,-4164,44,480
1773579281.230266,22.1,28.5,0,-4184,116,408
1773579281.2521875,22.1,28.5,0,-4184,116,408
1773579281.2725024,22.1,28.5,0,-4184,116,408
1773579281.2929995,22.1,28.5,0,-4164,172,408
1773579281.3133516,22.1,28.5,0,-4164,172,408
1773579281.3337283,22.1,28.5,0,-4084,68,512
1773579281.3539674,22.1,28.5,0,-4084,68,512
1773579281.3744864,22.1,28.5,0,-4084,68,512
1773579281.395174,22.1,28.5,0,-4188,88,408
1773579281.415945,22.1,28.5,0,-4188,88,408
1773579281.4363222,22.1,28.5,0,-4160,52,480
1773579281.4569936,22.1,28.5,0,-4160,52,480
1773579281.4776962,22.1,28.5,0,-4160,52,480
1773579281.498069,22.1,28.5,0,-4132,208,352
1773579281.5188665,22.1,28.5,0,-4132,208,352
1773579281.5395598,22.1,28.5,0,-4188,44,464
1773579281.5603812,22.1,28.5,0,-4188,44,464
1773579281.5809731,22.1,28.5,0,-4188,44,464
1773579281.6015472,22.1,28.5,0,-4160,116,420
1773579281.6219625,22.1,28.5,0,-4160,116,420
1773579281.6423564,22.1,28.5,0,-4160,116,420
1773579281.6628168,22.1,28.5,0,-4168,216,408
1773579281.683248,22.1,28.5,0,-4168,216,408
1773579281.7037537,22.1,28.5,0,-4168,216,408
1773579281.724679,22.1,28.4,0,-4240,56,448
1773579281.7449462,22.1,28.4,0,-4240,56,448
1773579281.7654827,22.1,28.4,0,-4240,56,448
1773579281.7857661,22.1,28.4,0,-4164,68,368
1773579281.8064046,22.1,28.4,0,-4164,68,368
1773579281.8269672,22.1,28.4,0,-4164,68,368
1773579281.8477135,22.1,28.4,0,-4176,172,432
1773579281.8681412,22.1,28.4,0,-4176,172,432
1773579281.8889449,22.1,28.4,0,-4208,160,480
1773579281.9096975,22.1,28.4,0,-4208,160,480
1773579281.9301624,22.1,28.4,0,-4208,160,480
1773579281.9510956,22.1,28.4,0,-4144,96,416
1773579281.971658,22.1,28.4,0,-4144,96,416
1773579281.992079,22.1,28.4,0,-4080,60,552
1773579282.0128667,22.1,28.4,0,-4080,60,552
1773579282.0332086,22.1,28.4,0,-4080,60,552
1773579282.0537493,22.1,28.4,0,-4184,128,396
1773579282.0741236,22.1,28.4,0,-4184,128,396
1773579282.0945559,22.1,28.4,0,-4212,32,464
1773579282.115371,22.1,28.4,0,-4212,32,464
1773579282.136044,22.1,28.4,0,-4212,32,464
1773579282.1565778,22.1,28.4,0,-4132,132,392
1773579282.1769233,22.1,28.4,0,-4132,132,392
1773579282.1974554,22.1,28.4,0,-4132,132,392
1773579282.2181654,22.1,28.4,0,-4148,56,492
1773579282.2388268,22.1,28.4,0,-4148,56,492
1773579282.259538,22.1,28.4,0,-4204,128,408
1773579282.2802215,22.1,28.4,0,-4204,128,408
1773579282.300924,22.1,28.4,0,-4204,128,408
1773579282.3213918,22.1,28.4,0,-4124,180,436
1773579282.3420565,22.1,28.4,0,-4124,180,436
1773579282.3622754,22.1,28.4,0,-4088,124,528
1773579282.3829362,22.1,28.4,0,-4088,124,528
1773579282.4035301,22.1,28.4,0,-4088,124,528
1773579282.4244945,22.1,28.4,0,-4164,92,404
1773579282.4455843,22.1,28.4,0,-4164,92,404
1773579282.4658039,22.1,28.4,0,-4160,24,480
1773579282.486642,22.1,28.4,0,-4160,24,480
1773579282.5073519,22.1,28.4,0,-4160,24,480
1773579282.52772,22.1,28.4,0,-4180,256,292
1773579282.5480092,22.1,28.4,0,-4180,256,292
1773579282.5688128,22.1,28.4,0,-4180,256,292
1773579282.5893831,22.1,28.4,0,-4168,76,452
1773579282.6106086,22.1,28.4,0,-4168,76,452
1773579282.6313968,22.1,28.4,0,-4168,52,408
1773579282.6523278,22.1,28.4,0,-4168,52,408
1773579282.6728039,22.1,28.4,0,-4168,52,408
1773579282.694038,22.1,28.4,0,-4156,176,432
1773579282.714585,22.1,28.4,0,-4156,176,432
1773579282.7357702,22.1,28.4,0,-4172,160,492
1773579282.7563293,22.1,28.4,0,-4172,160,492
1773579282.7771082,22.1,28.4,0,-4172,160,492
1773579282.7984757,22.1,28.4,0,-4152,52,392
1773579282.8190536,22.1,28.4,0,-4152,52,392
1773579282.8395898,22.1,28.4,0,-4140,60,516
1773579282.860038,22.1,28.4,0,-4140,60,516
1773579282.880398,22.1,28.4,0,-4140,60,516
1773579282.9006505,22.1,28.4,0,-4204,180,408
1773579282.921261,22.1,28.4,0,-4204,180,408
1773579282.9424603,22.1,28.4,0,-4204,180,408
1773579282.9628315,22.1,28.4,0,-4216,24,464
1773579282.9837744,22.1,28.4,0,-4216,24,464
1773579283.0044281,22.1,28.4,0,-4148,76,356
1773579283.0247374,22.1,28.4,0,-4148,76,356
1773579283.0451107,22.1,28.4,0,-4148,76,356
1773579283.0656016,22.1,28.4,0,-4160,164,396
1773579283.086162,22.1,28.4,0,-4160,164,396
1773579283.1063223,22.1,28.4,0,-4208,160,484
1773579283.126753,22.1,28.4,0,-4208,160,484
1773579283.1471562,22.1,28.4,0,-4208,160,484
